Code	Codelist Code	Codelist Extensible (Yes/No)	Codelist Name	CDISC Submission Value	CDISC Synonym(s)	CDISC Definition	NCI Preferred Term
C66767		No	Action Taken with Study Treatment	ACN	Action Taken with Study Treatment	Terminology specifying changes to the study treatment as a result of an adverse event.	CDISC SDTM Action Taken with Study Treatment Terminology
C49503	C66767		Action Taken with Study Treatment	DOSE INCREASED		An indication that a medication schedule was modified by addition; either by changing the frequency, strength or amount. (NCI)	Dose Increased
C49504	C66767		Action Taken with Study Treatment	DOSE NOT CHANGED		An indication that a medication schedule was maintained. (NCI)	Dose Not Changed
C49505	C66767		Action Taken with Study Treatment	DOSE REDUCED		An indication that a medication schedule was modified by subtraction, either by changing the frequency, strength or amount. (NCI)	Dose Reduced
C49501	C66767		Action Taken with Study Treatment	DRUG INTERRUPTED		An indication that a medication schedule was modified by temporarily terminating a prescribed regimen of medication. (NCI)	Drug Interrupted
C49502	C66767		Action Taken with Study Treatment	DRUG WITHDRAWN		An indication that a medication schedule was modified through termination of a prescribed regimen of medication. (NCI)	Drug Withdrawn
C48660	C66767		Action Taken with Study Treatment	NOT APPLICABLE	NA; Not Applicable	Determination of a value is not relevant in the current context. (NCI)	Not Applicable
C17998	C66767		Action Taken with Study Treatment	UNKNOWN	U; Unknown	Not known, not observed, not recorded, or refused. (NCI)	Unknown
C101865		No	Acute Coronary Syndrome Presentation Category	ACSPCAT	Acute Coronary Syndrome Presentation Category	A classification of the presentation of acute coronary syndrome.	CDISC SDTM Acute Coronary Syndrome Presentation Category Terminology
C80383	C101865		Acute Coronary Syndrome Presentation Category	NON-ST ELEVATION MYOCARDIAL INFARCTION	NON-STEMI; NSTEMI	A myocardial infarction that does not produce elevation in the ST segments of the ECG.	Non-ST Elevation Myocardial Infarction by ECG Finding
C17649	C101865		Acute Coronary Syndrome Presentation Category	OTHER	Other	Different than the one(s) previously specified or mentioned. (NCI)	Other
C101888	C101865		Acute Coronary Syndrome Presentation Category	ST ELEVATION MYOCARDIAL INFARCTION	STEMI	A myocardial infarction that produces elevation in the ST segments of the ECG.	ST Elevation Myocardial Infarction by ECG Finding
C66914	C101865		Acute Coronary Syndrome Presentation Category	STABLE ANGINA		Angina pectoris which has not recently changed in frequency, duration or intensity. Stable angina pectoris is relieved by rest or administration of oral, sublingual or transdermal antianginal medications.	Stable Angina
C66911	C101865		Acute Coronary Syndrome Presentation Category	UNSTABLE ANGINA		Angina pectoris (or equivalent type of ischemic discomfort) which has recently changed in frequency, duration, intensity, or occurs at rest.	Unstable Angina
C66781		No	Age Unit	AGEU	Age Unit	Those units of time that are routinely used to express the age of a subject.	CDISC SDTM Age Unit Terminology
C25301	C66781		Age Unit	DAYS	Day	The time for Earth to make a complete rotation on its axis; ordinarily divided into twenty-four hours. This also refers to a specific day. (NCI)	Day
C25529	C66781		Age Unit	HOURS	Hour; hr	A unit measure of time equal to 3,600 seconds or 60 minutes. It is approximately 1/24 of a median day. (NCI)	Hour
C29846	C66781		Age Unit	MONTHS	Month	One of the 12 divisions of a year as determined by a calendar. It corresponds to the unit of time of approximately to one cycle of the moon's phases, about 30 days or 4 weeks. (NCI)	Month
C29844	C66781		Age Unit	WEEKS	Week	Any period of seven consecutive days. (NCI)	Week
C29848	C66781		Age Unit	YEARS	Year	The period of time that it takes for Earth to make a complete revolution around the sun, approximately 365 days; a specific one year period. (NCI)	Year
C74456		Yes	Anatomical Location	LOC	Anatomical Location	Terminology codelist used for anatomical location within CDISC.	CDISC SDTM Anatomical Location Terminology
C116163	C74456		Anatomical Location	5TH LUMBAR SPINOUS PROCESS		The spinous process of the 5th lumbar vertebra.	Fifth Lumbar Spinous Process
C32038	C74456		Anatomical Location	ABDOMINAL AORTA		The portion of the descending aorta that lies within the abdomen, beginning below the diaphragm and ending at its division into the right and left common iliac arteries. (NCI)	Abdominal Aorta
C12664	C74456		Anatomical Location	ABDOMINAL CAVITY	Abdomen; Abdominal Cavity	The portion of the body that lies between the thorax and the pelvis. (NCI)	Abdomen
C12360	C74456		Anatomical Location	ABDOMINAL LYMPH NODE		Any lymph node within the abdomen.	Intra-Abdominal Lymph Node
C52758	C74456		Anatomical Location	ABDOMINAL SKIN	Abdominal Skin	The skin or integument surrounding the abdomen. (NCI)	Abdominal Skin
C77608	C74456		Anatomical Location	ABDOMINAL WALL		The tissues that surround the organs that are present within the abdominal cavity. The abdominal wall tissue is composed of layers of fat, parietal peritoneum, fascia, and muscles. (NCI)	Abdominal Wall
C12665	C74456		Anatomical Location	ABDUCENS NERVE		The sixth cranial nerve.	Abducens Nerve
C116183	C74456		Anatomical Location	ACCESSORY RENAL ARTERY		An additional renal vessel originating from the aorta and entering the kidney at the proximal or distal end of the organ. Accessory renal arteries are found in 26-30% of humans.	Accessory Renal Artery
C32042	C74456		Anatomical Location	ACETABULUM	Acetabulum	Two cup shaped areas, one each on the lateral side of the lower pelvis that house the head of the femur to form the ball and socket joint of the hip. (NCI)	Acetabulum
C32043	C74456		Anatomical Location	ACHILLES TENDON	Calcaneal Tendon	The tendon that connects the heel bone to the calf muscles at the back of the lower leg. (NCI)	Achilles Tendon
C32047	C74456		Anatomical Location	ACROMIOCLAVICULAR JOINT	Acromioclavicular Joint	The junction of the upper distal end of the scapula to the distal edge of the collarbone, also known as the acromion and the clavicle. (NCI)	Acromioclavicular Joint
C32048	C74456		Anatomical Location	ACROMION	Acromion	The upper distal process of the scapula. (NCI)	Acromion
C102285	C74456		Anatomical Location	ACUTE MARGINAL ARTERY	ACUTE MARGINAL ARTERY SEGMENT(S); AMARG	The arteries that arise at the junction of the proximal and mid-right coronary artery conduit segments.	Acute Marginal Artery
C12666	C74456		Anatomical Location	ADRENAL GLAND	Adrenal Gland	Suprarenal gland. A flattened, roughly triangular body resting upon the upper end of each kidney; it is one of the ductless glands furnishing internal secretions (epinephrine and norepinephrine from the medulla and steroid hormones from the cortex). (NCI)	Adrenal Gland
C12440	C74456		Anatomical Location	AMYGDALA	Amygdaloid Nucleus	An almond-shaped group of basal nuclei anterior to the inferior horn of the lateral ventricle of the brain, within the temporal lobe. The amygdala is part of the limbic system. (MESH)	Amygdala
C15609	C74456		Anatomical Location	ANASTOMOSIS	Anastomosis	A natural or surgically-induced connection between tubular structures in the body. (NCI)	Anastomosis
C32078	C74456		Anatomical Location	ANKLE JOINT	Ankle; Ankle Joint	A gliding joint between the distal ends of the tibia and fibula and the proximal end of the talus. (NCI)	Ankle Joint
C117868	C74456		Anatomical Location	ANKLE MORTISE	Talar Mortise	A rectangular socket or bony arch that connects the ends of the tibia and fibula to the talus.	Ankle Mortise
C12825	C74456		Anatomical Location	ANTERIOR TIBIAL ARTERY		An artery of the lower extremity that supplies blood to the anterior part of the leg and the foot.	Anterior Tibial Artery
C12259	C74456		Anatomical Location	ANTRUM PYLORI	Antrum Pylori	The initial part of the pyloric canal of the stomach. This site contains endocrine cells that produce gastrin and somatostatin. (NCI)	Antrum Pylori
C43362	C74456		Anatomical Location	ANUS	Anus	The lower opening of the digestive tract, lying in the cleft between the buttocks, through which fecal matter is extruded. (NCI)	Anus
C12669	C74456		Anatomical Location	AORTA	Aorta	The major arterial trunk that carries oxygenated blood from the left ventricle into the ascending aorta behind the heart, the aortic arch, through the thorax as the descending aorta and through the abdomen as the abdominal aorta; it bifurcates into the left and right common iliac arteries. (NCI)	Aorta
C32123	C74456		Anatomical Location	AORTIC ARCH	Aortic Arch	The curved segment of the aorta between the ascending and the descending segments.	Aortic Arch
C12670	C74456		Anatomical Location	AORTIC VALVE		A valve that is located between and controls the flow of blood from the left ventricle of the heart and the aorta. (NCI)	Aortic Valve
C116166	C74456		Anatomical Location	AORTO-ILIAC PERIPHERAL ARTERY		The segment of the blood vessels that includes the iliac artery and its origin from the aorta.	Aortoiliac Artery Segment
C116165	C74456		Anatomical Location	AORTOPULMONARY WINDOW LYMPH NODE		A lymph node located in the aortopulmonary window.	Aortopulmonary Window Lymph Node
C83470	C74456		Anatomical Location	APPENDICEAL TIP		The distal end of the appendix. (NCI)	Appendiceal Tip
C49477	C74456		Anatomical Location	APPENDICULAR SKELETON		The part of the skeleton that includes the bones of the upper and lower limbs, including the shoulder and pelvic girdles	Appendicular Skeleton
C12380	C74456		Anatomical Location	APPENDIX	Appendix	Small tissue projection existing as a cecal diverticulum with a questionable history of vestigial versus specialized organ. (NCI)	Appendix
C32141	C74456		Anatomical Location	ARM	Arm	The portion of the upper extremity between the shoulder and the elbow. For clinical purposes this term is also used to refer to the whole superior limb. (NCI)	Arm
C52754	C74456		Anatomical Location	ARM SKIN	Arm Skin	The skin or integument covering the arm. (NCI)	Arm Skin
C12372	C74456		Anatomical Location	ARTERY	Artery	A blood vessel that carries blood away from the heart. (NCI)	Artery
C32172	C74456		Anatomical Location	AXIAL SKELETON		The part of the skeleton that includes the skull and spinal column and sternum and ribs. (NCI)	Axial Skeleton
C12674	C74456		Anatomical Location	AXILLA	Axilla	The underside concavity where the arm and the shoulder are joined. (NCI)	Axilla
C32169	C74456		Anatomical Location	AXILLARY ARTERY		An artery that originates from the subclavian artery at the lateral margin of the first rib. It supplies the brachial artery.	Axillary Artery
C12904	C74456		Anatomical Location	AXILLARY LYMPH NODE	Axillary Lymph Node	One of approximately 20-30 lymph nodes in chain formation that traverse the concavity of the underarm to the clavicle. (NCI)	Axillary Lymph Node
C32171	C74456		Anatomical Location	AXILLARY VEIN		A large blood vessel which returns blood to the heart from the lateral thorax, axilla and upper limb. Each side of the body contains one axillary vein.	Axillary Vein
C13062	C74456		Anatomical Location	BACK	Back	The dorsal area between the base of the neck and the sacrum. (NCI)	Back
C12447	C74456		Anatomical Location	BASAL GANGLIA	Basal Ganglia	Clusters of neurons comprising the globus pallidus, putamen, caudate, nucleus accumbens, substantia nigra and subthalamic nucleus. They are involved with high level aspects of inhibitory motor activity in coordination with the excitation commands issued from the cerebellum. (NCI)	Basal Ganglia
C32197	C74456		Anatomical Location	BASILIC VEIN	Basilic Vein	One of the moderately large superficial veins of the forearm that transports blood from the hand and the medial aspect of the forearm to the axillary vein. (NCI)	Basilic Vein
C32200	C74456		Anatomical Location	BICEPS BRACHII MUSCLE	Biceps	A muscle in the upper limb. Its action involves the rotation of the limb and the flexion of the humeralradial joint.	Biceps
C53147	C74456		Anatomical Location	BICEPS FEMORIS MUSCLE		A muscle in the back of the thigh. Its action involves the knee flexion and hip extension. (NCI)	Biceps Femoris
C12376	C74456		Anatomical Location	BILE DUCT		Any of the ducts conveying bile between the liver and the intestine, including hepatic, cystic, and common bile duct.	Bile Duct
C12678	C74456		Anatomical Location	BILIARY TRACT	Biliary Tract	The duct system that transports bile from its origination by hepatocytes in the liver to the small intestine. It is comprised of the common bile duct that connects the liver and gall bladder to the small intestine and the cystic duct that connects the gall bladder to the common bile duct. (NCI)	Biliary Tract
C12414	C74456		Anatomical Location	BLADDER	Bladder	The distensible sac-like organ that functions as a reservoir of urine, collecting from the kidneys and eliminating via the urethra. (NCI)	Bladder
C48941	C74456		Anatomical Location	BLADDER WALL		The tissue layers that form the urinary bladder. They include the mucosa, submucosa, smooth muscle, and serosa.	Bladder Wall
C12332	C74456		Anatomical Location	BLADDER, DOME	Dome of the Bladder	The upper, convex surface of the bladder. (NCI)	Dome of the Bladder
C48939	C74456		Anatomical Location	BLADDER, FUNDUS	Fundus of the Bladder	The portion of the bladder that is formed by the posterior wall and is located opposite to the bladder opening. (NCI)	Bladder Fundus
C12336	C74456		Anatomical Location	BLADDER, NECK	Neck of the Bladder	The inferior portion of the urinary bladder which is formed as the walls of the bladder converge and become contiguous with the proximal urethra. (NCI)	Bladder Neck
C12331	C74456		Anatomical Location	BLADDER, TRIGONE	Trigone of the Bladder	The triangular area in the bladder mucosa that is formed by the two ureteral orifices and the urethral orifice. (NCI)	Bladder Trigone
C12434	C74456		Anatomical Location	BLOOD	Blood; Peripheral Blood	A liquid tissue with the primary function of transporting oxygen and carbon dioxide. It supplies the tissues with nutrients, removes waste products, and contains various components of the immune system defending the body against infection.	Blood
C12679	C74456		Anatomical Location	BLOOD VESSEL	Blood Vessel	A tubular structure through which the blood circulates in the body. Blood vessels constitute a network composed of arteries, arterioles, capillaries, venules, and veins. (NCI)	Blood Vessel
C13041	C74456		Anatomical Location	BODY	Body	The entire physical structure of an organism. It is composed of anatomic systems, regions, cavities, and spaces. (NCI)	Body
C12258	C74456		Anatomical Location	BODY OF STOMACH	Body of Stomach	The main section of the digestive tube that connects the esophagus to the small intestine. The body proper excludes the upper and lower sections of the fundus and pyloric portion respectively. (NCI)	Body of Stomach
C12366	C74456		Anatomical Location	BONE	Bone	Calcified connective tissue that forms the skeletal components of the body. (NCI)	Bone
C12431	C74456		Anatomical Location	BONE MARROW	Bone Marrow	The tissue occupying the spaces of bone. It consists of blood vessel sinuses and a network of hematopoietic cells which give rise to the red cells, white cells, and megakaryocytes. (NCI)	Bone Marrow
C12681	C74456		Anatomical Location	BRACHIAL ARTERY	Brachial Artery	An artery originating at the axillary artery and branching into the radial and ulnar arteries. (NCI)	Brachial Artery
C92221	C74456		Anatomical Location	BRACHIAL LYMPH NODE		An axillary lymph node along the brachial vein. (NCI)	Brachial Lymph Node
C12682	C74456		Anatomical Location	BRACHIAL PLEXUS	Brachial Plexus	A nerve network originating from C5 to T1 that supplies cutaneous and muscular innervation to the arm and hand. (NCI)	Brachial Plexus
C12439	C74456		Anatomical Location	BRAIN	Brain; Nervous System, Brain	An organ composed of grey and white matter containing billions of neurons that is the center for intelligence and reasoning. It is protected by the bony cranium. (NCI)	Brain
C12441	C74456		Anatomical Location	BRAIN STEM	Brain Stem	The part of the brain that connects the cerebral hemispheres with the spinal cord. It consists of the mesencephalon, pons, and medulla oblongata. (NCI)	Brain Stem
C12356	C74456		Anatomical Location	BRAIN VENTRICLE	Brain Ventricle	The four connected cavities (hollow spaces) centrally located within the brain that connect posteriorly with the central canal of the spinal cord. (NCI)	Brain Ventricle
C12971	C74456		Anatomical Location	BREAST	Breast	One of two hemispheric projections of variable size situated in the subcutaneous layer over the pectoralis major muscle on either side of the chest. (NCI)	Breast
C12683	C74456		Anatomical Location	BRONCHUS	Bronchi; Bronchus	Tubular structure in continuation with the trachea, serving as air passage. It terminates in the lung (terminal bronchiole). (NCI)	Bronchus
C89806	C74456		Anatomical Location	BUTTOCK	Buttock	Either of the fleshy mounds in the rear pelvic area of the human body formed by the gluteal muscles.	Buttock
C32239	C74456		Anatomical Location	C1 VERTEBRA	C1 Vertebra	The first of the seven cervical vertebrae. (NCI)	C1 Vertebra
C32240	C74456		Anatomical Location	C2 VERTEBRA	C2 Vertebra	The second of the seven cervical vertebrae. (NCI)	C2 Vertebra
C32241	C74456		Anatomical Location	C3 VERTEBRA	C3 Vertebra	The third of the seven cervical vertebrae. (NCI)	C3 Vertebra
C32242	C74456		Anatomical Location	C4 VERTEBRA	C4 Vertebra	The fourth of the seven cervical vertebrae. (NCI)	C4 Vertebra
C32243	C74456		Anatomical Location	C5 VERTEBRA	C5 Vertebra	The fifth of the seven cervical vertebrae. (NCI)	C5 Vertebra
C32244	C74456		Anatomical Location	C6 VERTEBRA	C6 Vertebra	The sixth of the seven cervical vertebrae. (NCI)	C6 Vertebra
C32245	C74456		Anatomical Location	C7 VERTEBRA	C7 Vertebra	The seventh of the seven cervical vertebrae. (NCI)	C7 Vertebra
C32252	C74456		Anatomical Location	CALCARINE SULCUS		A cerebral fissure that originates near the occipital lobe and terminates below the corpus callosum. (NCI)	Calcarine Sulcus
C93027	C74456		Anatomical Location	CALF		The posterior aspect of the lower extremity that extends from the knee to the foot. (NCI)	Calf
C32258	C74456		Anatomical Location	CANINE TOOTH	Canine Tooth	A single-cusped (pointed) and usually single-rooted tooth located between the incisors and premolars. (NCI)	Canine Tooth
C12856	C74456		Anatomical Location	CAPITATE BONE	Capitate Bone	The largest of eight carpal bones, located in the center of the hand. (NCI)	Capitate Bone
C12687	C74456		Anatomical Location	CAROTID ARTERY	Carotid Artery	One of two arteries that supply oxygenated blood to the head and neck; the left common carotid branches from the aorta and the right common carotid from the innominate (brachiocephalic artery). (NCI)	Carotid Artery
C12688	C74456		Anatomical Location	CARPAL BONE		Any of the small bones of the wrist joint, located between the radius and the ulna and the metacarpus. (NCI)	Carpal Bone
C103912	C74456		Anatomical Location	CARPOMETACARPAL JOINT 1	CMC1	A saddle-shaped synovial joint between the metacarpal of the thumb and the trapezium. (NCI)	Carpometacarpal Joint 1
C103913	C74456		Anatomical Location	CARPOMETACARPAL JOINT 2	CMC2	A plane joint primarily between the second metacarpal and the trapezoid, which also connects with the trapezium and capitate. (NCI)	Carpometacarpal Joint 2
C103914	C74456		Anatomical Location	CARPOMETACARPAL JOINT 3	CMC3	A plane joint between the third metacarpal and the capitate. (NCI)	Carpometacarpal Joint 3
C103915	C74456		Anatomical Location	CARPOMETACARPAL JOINT 4	CMC4	A plane joint between the fourth metacarpal and the hamate. (NCI)	Carpometacarpal Joint 4
C103916	C74456		Anatomical Location	CARPOMETACARPAL JOINT 5	CMC5	A plane joint between the fifth metacarpal and the pisiform. (NCI)	Carpometacarpal Joint 5
C12451	C74456		Anatomical Location	CAUDATE NUCLEUS		An elongated gray mass of the neostriatum located adjacent to the lateral ventricle of the brain. (MeSH)	Caudate Nucleus
C12381	C74456		Anatomical Location	CECUM	Cecal; Cecum	A blind pouch-like commencement of the colon in the right lower quadrant of the abdomen at the end of the small intestine and the start of the large intestine. (OMD)	Cecum
C65166	C74456		Anatomical Location	CELIAC LYMPH NODE	Celiac Axis Lymph Node; Celiac Lymph Node	A lymph node at the base of the celiac artery. (NCI)	Celiac Lymph Node
C12438	C74456		Anatomical Location	CENTRAL NERVOUS SYSTEM		The part of the nervous system that consists of the brain, spinal cord, and meninges. (NCI)	Central Nervous System
C32286	C74456		Anatomical Location	CEPHALIC VEIN	Cephalic Vein; Vena Cephalica	One of five superficial veins of the upper extremity, beginning at the radial aspect of the wrist area, wrapping around the forearm and emptying into the axillary vein. (NCI)	Cephalic Vein
C12445	C74456		Anatomical Location	CEREBELLUM		The portion of the brain located at the base of the skull that is responsible for balance, equilibrium and movement. (NCI)	Cerebellum
C12443	C74456		Anatomical Location	CEREBRAL CORTEX	Cerebral Cortex	The outer layer of the cerebrum composed of neurons and unmyelinated nerve fibers. It is responsible for memory, attention, consciousness and other higher levels of mental function.	Cerebral Cortex
C32955	C74456		Anatomical Location	CEREBRAL HEMISPHERE, LEFT		The left half of the cerebrum.	Left Cerebral Hemisphere
C33472	C74456		Anatomical Location	CEREBRAL HEMISPHERE, RIGHT		The right half of the cerebrum.	Right Cerebral Hemisphere
C98712	C74456		Anatomical Location	CEREBRAL SUBCORTEX	Cerebral Subcortex	The layer located below the cerebral cortex that includes the forebrain, midbrain and hindbrain. (NCI)	Cerebral Subcortex
C12351	C74456		Anatomical Location	CEREBRUM	Cerebral Hemisphere	One half of the cerebrum, the part of the brain that controls muscle functions and also controls speech, thought, emotions, reading, writing, and learning. The right hemisphere controls the muscles on the left side of the body, and the left hemisphere controls the muscles on the right side of the body. (NCI)	Cerebral Hemisphere
C32298	C74456		Anatomical Location	CERVICAL LYMPH NODE	Cervical Lymph Node	Any of the lymph nodes located in the neck. (NCI)	Cervical Lymph Node
C12693	C74456		Anatomical Location	CERVICAL VERTEBRA		Any one of the vertebrae situated between the skull and the thoracic vertebrae.	Cervical Vertebra
C12311	C74456		Anatomical Location	CERVIX UTERI	Cervix Uteri; Uterine Cervix	The lower part of the uterus occupying the region between the isthmus of the uterus and the vagina. It is divided into supravaginal and vaginal portions. (NCI)	Cervix Uteri
C13070	C74456		Anatomical Location	CHEEK		The fleshy part of the face bounded by the eyes, nose, ear, and jaw line. (NCI)	Cheek
C25389	C74456		Anatomical Location	CHEST	Chest	The anterior side of the thorax from the neck to the abdomen. The shape of the chest is often regarded as potential insight into a disease process, as in the case of barrel chest and respiratory dysfunction. (NCI)	Chest
C62484	C74456		Anatomical Location	CHEST WALL	Chest Wall	The total system of structures outside the lungs that move as a part of breathing; it includes all structures from the skin to the parietal pleura. (NCI)	Chest Wall
C12694	C74456		Anatomical Location	CHOROID PLEXUS	Choroid Plexus	Blood vessels forming villous structures in the third, fourth, and lateral ventricles of the brain. (NCI)	Choroid Plexus
C52713	C74456		Anatomical Location	CINGULATE CORTEX		Part of the medial aspect of the cerebral cortex. (NCI)	Cingulate Cortex
C102287	C74456		Anatomical Location	CIRCUMFLEX ARTERY AV GROOVE CONTINUATION ARTERY	CIRC AV; CIRCUMFLEX ARTERY AV GROOVE CONTINUATION ARTERY SEGMENT	The segment of the left circumflex artery that is distal to the third marginal branch, located in the atrioventricular groove.	Circumflex Artery AV Groove Continuation Artery
C102286	C74456		Anatomical Location	CIRCUMFLEX, OBTUSE MARGINALS, LEFT POSTEROLETERAL AND LEFT POSTERIOR DESCENDING ARTERY BRANCHES		The left circumflex coronary artery and all of its branches.	Circumflex Artery and its Branches
C12695	C74456		Anatomical Location	CLAVICLE	Clavicle	A bone linking the scapula and the sternum. The clavicle is part of the pectoral girdle.	Clavicle
C12308	C74456		Anatomical Location	CLITORIS		The erectile tissue in the vulva. It is composed of the corpora cavernosa and the glans clitoris.	Clitoris
C32334	C74456		Anatomical Location	COCCYGEAL VERTEBRA	Coccygeal Vertebra	Four vertebral segments positioned at the base of the spine that are fused. (NCI)	Coccygeal Vertebra
C12696	C74456		Anatomical Location	COCCYX	Coccyx	A small bone located at the bottom of the spine. The coccyx is a result of 3-5 fused rudimentary vertebrae. (NCI)	Coccyx
C12382	C74456		Anatomical Location	COLON	Colon	The part of the large intestine measured from the cecum to the rectum consisting of ascending, transverse, descending and sigmoid portions. The purpose of the colon is to remove water from digested food prior to excretion. (NCI)	Colon
C12265	C74456		Anatomical Location	COLON, ASCENDING	Ascending Colon	The first part of the colon (large intestine) that starts in the right lower quadrant of the abdomen and ends at the transverse colon in the right upper quadrant of the abdomen. (NCI)	Ascending Colon
C12268	C74456		Anatomical Location	COLON, DESCENDING	Descending Colon	The fourth portion of the large intestine (colon) that communicates with the transverse colon in the left-upper quadrant of the abdomen and the rectum below. (NCI)	Descending Colon
C33929	C74456		Anatomical Location	COLON, LEFT	Left Colon	The portion of the large intestine that includes the descending and sigmoid colon. (NCI)	Left Colon
C103438	C74456		Anatomical Location	COLON, RECTOSIGMOID		A portion of the large intestine that includes the descending colon, sigmoid colon and rectum.	Rectosigmoid Colon
C12383	C74456		Anatomical Location	COLON, RIGHT	Right Colon	The proximal segment of the large intestine that is located in the right side of the abdominal cavity. It includes the cecum (with the attached appendix) and the ascending colon. (NCI)	Right Colon
C12384	C74456		Anatomical Location	COLON, SIGMOID	Sigmoid Colon	The portion of the colon that connects to the descending colon above and the rectum below. (NCI)	Sigmoid Colon
C12385	C74456		Anatomical Location	COLON, TRANSVERSE	Transverse Colon	The third division of the colon (large intestine). It communicates with the ascending colon in the upper right-hand quadrant of the abdomen and the descending colon in the upper left-hand quadrant. (NCI)	Transverse Colon
C32354	C74456		Anatomical Location	COMMON FEMORAL ARTERY		An artery arising from the external iliac artery at the inguinal ligament which bifurcates forming the deep and superficial femoral arteries.	Common Femoral Artery
C32357	C74456		Anatomical Location	COMMON ILIAC ARTERY		An artery arising from the bifurcation of the abdominal aorta which then bifurcates forming the internal and external iliac arteries.	Common Iliac Artery
C103384	C74456		Anatomical Location	COMMON ILIAC LYMPH NODE		A lymph node located adjacent to the common iliac artery. (NCI)	Common Iliac Lymph Node
C12341	C74456		Anatomical Location	CONJUNCTIVA	Conjunctiva	A thin, transparent tissue divided into the palpebral conjunctiva (covering the inner side of the eye lid) and the bulbar conjunctiva (covering the eyeball). (NCI)	Conjunctiva
C12342	C74456		Anatomical Location	CORNEA	Cornea	A dome-shaped, transparent, avascular tissue covering the front of the eye. It is composed of five layers: squamous epithelium, Bowman's membrane, stroma, Descemet's membrane, and endothelium. Refraction of light contributing to eye's focusing ability is its characteristic function. It contains unmyelinated nerve endings which are responsible for the high sensitivity of the tissue. (NCI)	Cornea
C12843	C74456		Anatomical Location	CORONARY ARTERY	Coronary Artery	A principal artery that originates in the aorta. It supplies blood to the muscular tissue of the heart. (NCI)	Coronary Artery
C32089	C74456		Anatomical Location	CORONARY ARTERY, ANTERIOR DESCENDING	Anterior Descending Coronary Artery; Left Anterior Descending Coronary Artery	A left coronary artery branch that descends on the anterior portion of the heart through the anterior interventricular groove. (NCI)	Anterior Descending Coronary Artery
C12872	C74456		Anatomical Location	CORONARY ARTERY, LEFT	LM; Left Coronary Artery; Left Main Coronary Artery; Left Main Coronary Artery Segment	A coronary artery that arises from the aorta and bifurcates into the left anterior descending artery and the left circumflex artery. (NCI)	Left Coronary Artery
C12875	C74456		Anatomical Location	CORONARY ARTERY, RIGHT	Right Coronary Artery	A coronary artery that originates above the right coronary cusp and supplies blood predominantly to the right side of the heart. (NCI)	Right Coronary Artery
C32378	C74456		Anatomical Location	CORONARY SINUS		The coronary vein that terminates in the right atrium and transports deoxygenated blood from the coronary circulation.	Coronary Sinus
C12882	C74456		Anatomical Location	CORONARY VEIN		A blood vessel in the heart which returns coronary blood to the right atrium.	Coronary Vein
C12446	C74456		Anatomical Location	CORPUS CALLOSUM		A white matter structure within the cleft that separates the left and right cerebral hemispheres in the mammalian brain. It is composed of a wide, flat bundle of 200-250 million axonal projections. (NCI)	Corpus Callosum
C26465	C74456		Anatomical Location	CORPUS LUTEUM	Corpus Luteum	A group of cells that remain of the Graafian follicle following ovulation. This structure is composed of endocrine tissue and produces progesterone. This is needed to prepare the uterine lining for implantation by the fertilized egg. (NCI)	Corpus Luteum
C12448	C74456		Anatomical Location	CORPUS STRIATUM		The portion of the brain consisting of the neostriatum and globus pallidus.	Corpus Striatum
C32391	C74456		Anatomical Location	COSTAL CARTILAGE	Costal Cartilage	The cartilage positioned between the anterior end of the rib and the sternum. Its elasticity allows the ribcage to expand while breathing. (NCI)	Costal Cartilage
C102288	C74456		Anatomical Location	COSTOCHONDRAL JOINT 1		The first hyaline cartilaginous joint between the ribs and costal cartilage.	Costochondral Joint 1
C102289	C74456		Anatomical Location	COSTOCHONDRAL JOINT 7		The seventh hyaline cartilaginous joint between the ribs and costal cartilage.	Costochondral Joint 7
C12700	C74456		Anatomical Location	CRANIAL NERVE		Any of the 12 paired nerves that originate in the brain stem. (NCI)	Cranial Nerve
C32414	C74456		Anatomical Location	CUBOID BONE	Cuboid Bone	A bone on the lateral side of the tarsus between the calcaneus and the fourth and fifth metatarsal bones. (NCI)	Cuboid Bone
C12702	C74456		Anatomical Location	DIAPHRAGM		Fibromuscular tissue that separates the thoracic from the abdominal cavity. It increases the volume of the thoracic cavity through contractions, thus facilitating respiration.	Diaphragm
C102290	C74456		Anatomical Location	DISTAL CIRCUMFLEX ARTERY	DCIRC; DISTAL CIRCUMFLEX ARTERY SEGMENT	The segment of the left circumflex artery that is between the second and third obtuse marginal branches.	Distal Circumflex Artery
C102291	C74456		Anatomical Location	DISTAL INTERPHALANGEAL JOINT 2	DIP2	A condyloid synovial joint within the second digit of the hand or foot connecting the middle and distal phalanges. (NCI)	Distal Interphalangeal Joint 2
C114198	C74456		Anatomical Location	DISTAL INTERPHALANGEAL JOINT 2 OF THE FOOT	DIP2 of the Foot	A ginglymoid (hinge) synovial joint within the second digit of the foot connecting the middle and distal phalanges. (NCI)	Distal Interphalangeal Joint 2 of the Foot
C114188	C74456		Anatomical Location	DISTAL INTERPHALANGEAL JOINT 2 OF THE HAND	DIP2 of the Hand	A ginglymoid (hinge) synovial joint within the second digit of the hand connecting the middle and distal phalanges. (NCI)	Distal Interphalangeal Joint 2 of the Hand
C102292	C74456		Anatomical Location	DISTAL INTERPHALANGEAL JOINT 3	DIP3	A condyloid synovial joint within the third digit of the hand or foot connecting the middle and distal phalanges. (NCI)	Distal Interphalangeal Joint 3
C114199	C74456		Anatomical Location	DISTAL INTERPHALANGEAL JOINT 3 OF THE FOOT	DIP3 of the Foot	A ginglymoid (hinge) synovial joint within the third digit of the foot connecting the middle and distal phalanges. (NCI)	Distal Interphalangeal Joint 3 of the Foot
C114189	C74456		Anatomical Location	DISTAL INTERPHALANGEAL JOINT 3 OF THE HAND	DIP3 of the Hand	A ginglymoid (hinge) synovial joint within the third digit of the hand connecting the middle and distal phalanges. (NCI)	Distal Interphalangeal Joint 3 of the Hand
C102293	C74456		Anatomical Location	DISTAL INTERPHALANGEAL JOINT 4	DIP4	A condyloid synovial joint within the fourth digit of the hand or foot connecting the middle and distal phalanges. (NCI)	Distal Interphalangeal Joint 4
C114275	C74456		Anatomical Location	DISTAL INTERPHALANGEAL JOINT 4 OF THE FOOT	DIP4 of the Foot	A ginglymoid (hinge) synovial joint within the fourth digit of the foot connecting the middle and distal phalanges. (NCI)	Distal Interphalangeal Joint 4 of the Foot
C114273	C74456		Anatomical Location	DISTAL INTERPHALANGEAL JOINT 4 OF THE HAND	DIP4 of the Hand	A ginglymoid (hinge) synovial joint within the fourth digit of the hand connecting the middle and distal phalanges. (NCI)	Distal Interphalangeal Joint 4 of the Hand
C102294	C74456		Anatomical Location	DISTAL INTERPHALANGEAL JOINT 5	DIP5	A condyloid synovial joint within the fifth digit of the hand or foot connecting the middle and distal phalanges. (NCI)	Distal Interphalangeal Joint 5
C114276	C74456		Anatomical Location	DISTAL INTERPHALANGEAL JOINT 5 OF THE FOOT	DIP5 of the Foot	A ginglymoid (hinge) synovial joint within the fifth digit of the foot connecting the middle and distal phalanges. (NCI)	Distal Interphalangeal Joint 5 of the Foot
C114274	C74456		Anatomical Location	DISTAL INTERPHALANGEAL JOINT 5 OF THE HAND	DIP5 of the Hand	A ginglymoid (hinge) synovial joint within the fifth digit of the hand connecting the middle and distal phalanges. (NCI)	Distal Interphalangeal Joint 5 of the Hand
C102295	C74456		Anatomical Location	DISTAL LAD ARTERY	DISTAL LAD ARTERY SEGMENT; DLAD	The segment of the left anterior descending (LAD) artery that is distal to the third diagonal branch.	Distal Left Anterior Descending Artery
C102296	C74456		Anatomical Location	DISTAL RIGHT CORONARY ARTERY CONDUIT	DISTAL RIGHT CORONARY ARTERY CONDUIT SEGMENT; DRCA	The section of the right coronary artery distal to the origin of the acute marginal artery.	Distal Right Coronary Artery Conduit
C12934	C74456		Anatomical Location	DORSAL MOTOR NUCLEUS		A brain nucleus located in the medulla oblongata. (NCI)	Dorsal Motor Nucleus
C32478	C74456		Anatomical Location	DORSALIS PEDIS ARTERY	Dorsalis Pedis Artery	An artery of the dorsal surface of the foot, originating from the anterior tibial artery of the lower leg. The following arterial branches originate from the dorsalis pedis artery: the arcuate artery of the foot and deep plantar artery. (NCI)	Dorsalis Pedis Artery
C12263	C74456		Anatomical Location	DUODENUM		A jointed tube 25-30 cm long that connects the stomach to the jejunum. (NCI)	Duodenum
C102627	C74456		Anatomical Location	DURAL VENOUS SINUS		Venous channels within the dura mater of the brain which receives both blood from blood vessels within the brain as well as cerebrospinal fluid then drains into the internal jugular vein. Unlike other blood vessels, dural venous sinuses lack valves and other vessel associated layers.	Dural Venous Sinus
C12394	C74456		Anatomical Location	EAR	Ear	A sense organ needed for the detection of sound and for establishing balance. The outer ear consists of the auricle, the ear canal as well as the tympanic membrane. The middle ear is made up of an air-filled cavity behind the tympanic membrane that contains the ossicles (malleus, incus and stapes). The inner ear is made up of the cochlea needed for hearing and the vestibular apparatus required for balance. (NCI)	Ear
C12499	C74456		Anatomical Location	EAR, INNER	Cochlea; Internal Ear; Labyrinth	The portion of the ear located within the temporal bone that is involved in both hearing and balance and includes the semicircular canals, vestibule, and cochlea. (from American Heritage Dictionary online)	Inner Ear
C12292	C74456		Anatomical Location	EAR, OUTER	Auricle; External Ear	The external part of the ear. (NCI)	External Ear
C32497	C74456		Anatomical Location	ELBOW JOINT	Elbow Joint	A joint involving the humerus, radius and ulna bones.	Elbow Joint
C13004	C74456		Anatomical Location	ENDOCARDIUM		The layer of endothelial cells and connective tissue lining the chambers of the heart. (NCI)	Endocardium
C12309	C74456		Anatomical Location	ENDOCERVIX		The portion of the cervix which is lined by single columnar epithelium (mucosa). (NCI)	Endocervix
C32514	C74456		Anatomical Location	ENDOMETRIAL CAVITY	Endometrial Cavity	A space inside the uterus lined by a layer of mucus membranes called the endometrium. (NCI)	Endometrial Cavity
C97338	C74456		Anatomical Location	ENTORHINAL CORTEX		A brain region in the medial temporal lobe near the hippocampus. (NCI)	Entorhinal Cortex
C13164	C74456		Anatomical Location	EPICARDIUM		The outer membranous connective tissue layer of the heart tissue. (NCI)	Epicardium
C69300	C74456		Anatomical Location	EPICONDYLE	Epicondyle	A bone prominence to which ligaments and tendons of the joints are attached. (NCI)	Epicondyle
C12328	C74456		Anatomical Location	EPIDIDYMIS		A crescent-like structure located in the upper and posterior surfaces of the testis. It consists of the efferent ductules and the duct of the epididymis. It facilitates the maturation of sperm that is produced in the testis. (NCI)	Epididymis
C12709	C74456		Anatomical Location	EPIGLOTTIS	Epiglottis	A small cartilagenous flap-like valve that closes over the larynx during swallowing to prevent food entering the lungs. (NCI)	Epiglottis
C98182	C74456		Anatomical Location	EPITROCHLEAR LYMPH NODE		A lymph node located above and adjacent to the elbow. (NCI)	Epitrochlear Lymph Node
C12389	C74456		Anatomical Location	ESOPHAGUS		The portion of the digestive tract between the pharynx and stomach.	Esophagus
C12252	C74456		Anatomical Location	ESOPHAGUS, ABDOMINAL	Abdominal Esophagus	Clinical esophageal segment composed of smooth muscle. It corresponds to the inferior part of the lower third topographic segment of the esophagus. (NCI)	Abdominal Esophagus
C12250	C74456		Anatomical Location	ESOPHAGUS, CERVICAL	Cervical Esophagus	Clinical esophageal segment composed of skeletal muscle. It corresponds to the superior part of the upper third topographic segment of the esophagus. (NCI)	Cervical Esophagus
C12255	C74456		Anatomical Location	ESOPHAGUS, LOWER THIRD	Lower Third of the Esophagus	The lower one third of the esophagus in which the muscle layer is composed of muscle cells predominantly of the smooth type. (NCI)	Lower Third of the Esophagus
C12254	C74456		Anatomical Location	ESOPHAGUS, MIDDLE THIRD	Middle Third of the Esophagus	The middle one third of the esophagus in which the muscle layer is composed of muscle cells of the striated and smooth types.	Middle Third of the Esophagus
C12251	C74456		Anatomical Location	ESOPHAGUS, THORACIC	Thoracic Esophagus	Clinical esophageal segment composed of smooth muscle. It includes the middle third topographic segment, as well as parts of the upper and lower thirds. (NCI)	Thoracic Esophagus
C12253	C74456		Anatomical Location	ESOPHAGUS, UPPER THIRD	Upper Third of the Esophagus	The upper one third of esophagus in which the muscle layer is composed of muscle cells of the striated type. (NCI)	Upper Third of the Esophagus
C12711	C74456		Anatomical Location	ETHMOID BONE	Ethmoid Bone	A light and spongy bone that is cubical in shape. This bone is positioned at the anterior part of the cranium, sitting between the two orbits, at the roof of the nose. It consists of four parts: a horizontal or cribriform plate; a perpendicular plate; and two lateral masses or labyrinths. (NCI)	Ethmoid Bone
C12276	C74456		Anatomical Location	ETHMOID SINUS	Ethmoid Sinus	A sinus of the meatuses of the nasal cavity. (NCI)	Ethmoid Sinus
C32558	C74456		Anatomical Location	EXTERNAL ILIAC ARTERY		An artery arising from the bifurcation of the common iliac artery in the lower torso. The external iliac artery becomes the femoral artery and is the main blood supply for the leg.	External Iliac Artery
C88143	C74456		Anatomical Location	EXTERNAL ILIAC LYMPH NODE		A lymph node located along the external iliac artery. (NCI)	External Iliac Lymph Node
C32573	C74456		Anatomical Location	EXTRAHEPATIC BILE DUCT		The portion of the biliary tract outside the liver; the common hepatic duct joins the cystic duct to form the common bile duct. (NCI)	Extrahepatic Bile Duct
C12401	C74456		Anatomical Location	EYE	Eye; Eyeball	The organ of sight or vision. (NCI)	Eye
C12667	C74456		Anatomical Location	EYE, ANTERIOR CHAMBER		The space in the eye, filled with aqueous humor, bounded anteriorly by the cornea and a small portion of the sclera and posteriorly by a small portion of the ciliary body, the iris, and that part of the crystalline lens which presents through the pupil. (Cline et al., Dictionary of Visual Science, 4th ed, p109) (NCI)	Anterior Chamber of the Eye
C33885	C74456		Anatomical Location	EYE, VITREOUS CHAMBER	Postremal Chamber	The largest space within the eye which is bounded by the lens and the retina and filled with the gelatinous vitreous humor. (NCI)	Vitreous Chamber
C32576	C74456		Anatomical Location	EYELASH		Anyone of the short hairs that grow on the edge of the eyelid. (NCI)	Eyelash
C12713	C74456		Anatomical Location	EYELID	Eyelid; Palpebra	A thin membrane of skin with the purpose of covering and protecting an eye. (NCI)	Eyelid
C13071	C74456		Anatomical Location	FACE	Facial	The portion of the head containing the eyes, nose and mouth, cheeks and jaws.	Face
C32577	C74456		Anatomical Location	FACET JOINT	Facet Joint	A synovial joint between two adjacent vertebrae. The facet joint links the articular process of one vertebra and the inferior articular process of the adjacent vertebra. (NCI)	Facet Joint
C63706	C74456		Anatomical Location	FACIAL BONE	Facial Bone	Any bone that contributes to the facial structures, except those bones that are part of the braincase. (NCI)	Facial Bone
C12714	C74456		Anatomical Location	FACIAL NERVE	Seventh Cranial Nerve	The 7th cranial nerve. The facial nerve has two parts, the larger motor root which may be called the facial nerve proper, and the smaller intermediate or sensory root. Together they provide efferent innervation to the muscles of facial expression and to the lacrimal and salivary glands, and convey afferent information for taste from the anterior two-thirds of the tongue and for touch from the external ear. (MeSH)	Facial Nerve
C12403	C74456		Anatomical Location	FALLOPIAN TUBE	Fallopian Tube	One of a pair of tubes that extend from the uterus to each of the ovaries. Following ovulation the egg travels down the fallopian tube to the uterus where fertilization may or may not occur. (NCI)	Fallopian Tube
C13108	C74456		Anatomical Location	FASCIA		A sheet or band of fibrous connective tissue enveloping, separating, or binding together muscles, organs and other soft structures of the body.	Fascia
C61600	C74456		Anatomical Location	FEMALE GENITALIA	Female Genitalia	Female internal and external organs of reproduction.	Female Genitalia
C12402	C74456		Anatomical Location	FEMALE REPRODUCTIVE SYSTEM		The sex organs of the female.	Female Reproductive System
C12715	C74456		Anatomical Location	FEMORAL ARTERY	Femoral Artery	An artery that starts within the inguinal region and extends to the lower extremities. (NCI)	Femoral Artery
C114186	C74456		Anatomical Location	FEMORAL CONDYLE		The rounded bony projection at the distal end of the femur.	Femoral Condyle
C32718	C74456		Anatomical Location	FEMORAL HEAD	Femur Head	The highest portion of the femoral bone that articulates with the acetabulum. (NCI)	Head of the Femur
C98183	C74456		Anatomical Location	FEMORAL LYMPH NODE		A lymph node located in the upper inner portion of the thigh. (NCI)	Femoral Lymph Node
C61563	C74456		Anatomical Location	FEMORAL NECK	Femoral Neck	The short, constricted portion of the thigh bone between the femur head and the trochanter. (NCI)	Femoral Neck
C12716	C74456		Anatomical Location	FEMORAL VEIN	Femoral Vein	A vein that starts within the inguinal region and extends to the lower extremities. (NCI)	Femoral Vein
C116167	C74456		Anatomical Location	FEMORO-POPLITEAL PERIPHERAL ARTERY		The segment of the blood vessels that includes the popliteal artery and its origin from the femoral artery.	Femoropopliteal Artery Segment
C12717	C74456		Anatomical Location	FEMUR	Bone, Femoral; Femur	The upper leg bone positioned between the pelvis and the knee. (NCI)	Femur
C96209	C74456		Anatomical Location	FEMUR SHAFT		The cylindrical body of the femur. (NCI)	Femoral Shaft
C12718	C74456		Anatomical Location	FIBULA	Fibula	The small, lateral calf bone extending from the knee to the ankle. (NCI)	Fibula
C120670	C74456		Anatomical Location	FIBULA SHAFT		The elongated bony body of the fibula.	Fibular Shaft
C32608	C74456		Anatomical Location	FINGER	Finger	Any of the digits of the hand. (NCI)	Finger
C32609	C74456		Anatomical Location	FINGERNAIL	Fingernail	The nail at the end of a finger. (NCI)	Fingernail
C102297	C74456		Anatomical Location	FIRST DIAGONAL BRANCH ARTERY	1ST DIAG; FIRST DIAGONAL BRANCH ARTERY SEGMENT	The first artery arising from the left anterior descending (LAD) artery that supplies the anterolateral wall, when counted from proximal to distal.	First Diagonal Branch Artery
C102298	C74456		Anatomical Location	FIRST LEFT POSTEROLATERAL BRANCH ARTERY	1ST LPL; FIRST LEFT POSTEROLATERAL BRANCH ARTERY SEGMENT	In an individual with a left-dominant heart, this is the first branch that arises from the circumflex artery atrioventricular groove continuation when counted from proximal to distal. It supplies the posterolateral wall.	First Left Posterolateral Branch Artery
C102299	C74456		Anatomical Location	FIRST OBTUSE MARGINAL BRANCH ARTERY	1ST OM; FIRST OBTUSE MARGINAL BRANCH ARTERY SEGMENT	The first artery arising from the left circumflex artery that supplies the lateral wall, when counted from proximal to distal.	First Obtuse Marginal Branch Artery
C102300	C74456		Anatomical Location	FIRST RIGHT POSTEROLATERAL ARTERY	1ST RPL; FIRST RIGHT POSTEROLATERAL ARTERY SEGMENT	In an individual with a right-dominant heart, this is the first branch that arises from the right coronary artery distal to the right posterior descending artery, when counted from proximal to distal.	First Right Posterolateral Artery
C54187	C74456		Anatomical Location	FLOOR OF MOUTH		The area of the mouth under the ventral surface of the tongue.	Floor of Mouth
C32622	C74456		Anatomical Location	FOOT	Feet; Foot	The structure found below the ankle joint required for locomotion. (NCI)	Foot
C52839	C74456		Anatomical Location	FOOT DIGIT 1	Big Toe	The largest and most medial toe of the foot. (NCI)	Foot Digit 1
C52840	C74456		Anatomical Location	FOOT DIGIT 2	Index Toe	The second toe from the medial side of the foot. (NCI)	Foot Digit 2
C52841	C74456		Anatomical Location	FOOT DIGIT 3	Middle Toe	The middle or third toe from the medial side of the foot. (NCI)	Foot Digit 3
C52842	C74456		Anatomical Location	FOOT DIGIT 4	Fourth Toe	The fourth toe from the medial side of the foot. (NCI)	Foot Digit 4
C52843	C74456		Anatomical Location	FOOT DIGIT 5	Little Toe	The smallest and most lateral toe of the foot. (NCI)	Foot Digit 5
C52772	C74456		Anatomical Location	FOOT PHALANX	Foot Phalanx	A bone of the foot. (NCI)	Foot Phalanx
C32628	C74456		Anatomical Location	FOREARM	Forearm	The structure on the upper limb, between the elbow and the wrist. (NCI)	Forearm
C40185	C74456		Anatomical Location	FOREBRAIN		The largest part of the brain composed of the cerebral hemispheres, thalamus, hypothalamus, and the limbic system. (NCI)	Forebrain
C89803	C74456		Anatomical Location	FOREHEAD	Forehead	The part of the face between the eyebrows and the normal hairline.	Forehead
C12352	C74456		Anatomical Location	FRONTAL LOBE	Frontal Lobe	The part of the brain located anterior to the parietal lobes at the front of each cerebral hemisphere. (NCI)	Frontal Lobe
C12277	C74456		Anatomical Location	FRONTAL SINUS	Frontal Sinus	The paired, mucosal lined air spaces located above the orbit and communicating with the nasal passages. (NCI)	Frontal Sinus
C12257	C74456		Anatomical Location	FUNDUS OF THE STOMACH	Fundus of the Stomach	The portion of the stomach that lies above the cardiac notch. It allows for the accumulation of gases produced by chemical digestion. (NCI)	Fundus of the Stomach
C12377	C74456		Anatomical Location	GALLBLADDER	Gallbladder	A pear-shaped organ located under the liver that stores and concentrates bile secreted by the liver. From the gallbladder the bile is delivered through the bile ducts into the intestine thereby aiding the digestion of fat-containing foods. (NCI)	Gallbladder
C12719	C74456		Anatomical Location	GANGLION	Ganglia; Ganglion; Neural Ganglion	A cluster of nervous tissue principally composed of neuronal cell bodies external to the central nervous system (CNS). (NCI)	Ganglion
C12256	C74456		Anatomical Location	GASTRIC CARDIA	Gastric Cardia	The area around the esophagogastric mucosal junction where the esophageal mucosa transitions into the gastric mucosa. (NCI)	Gastric Cardia
C32668	C74456		Anatomical Location	GASTROESOPHAGEAL JUNCTION	Gastroesophageal Junction	The anatomical location where the esophagus joins to the stomach. (NCI)	Gastroesophageal Junction
C12378	C74456		Anatomical Location	GASTROINTESTINAL SYSTEM	Gastrointestinal System	The system that includes the esophagus, stomach, small and large intestine, anus, liver, biliary tract, and pancreas. (NCI)	Digestive System
C34082	C74456		Anatomical Location	GASTROINTESTINAL TRACT	Gastrointestinal Tract	The upper gastrointestinal (GI) tract is comprised of mouth, pharynx, esophagus and stomach while the lower GI tract consists of intestines and anus. The primary function of the GI tract is to ingest, digest, absorb and ultimately excrete food stuff. (NCI)	Gastrointestinal Tract
C33010	C74456		Anatomical Location	GASTROINTESTINAL TRACT, LOWER	Lower Gastrointestinal Tract	The lower part of the gastrointestinal tract that includes the jejunum and ileum of the small intestine and the large intestine. (NCI)	Lower Gastrointestinal Tract
C33837	C74456		Anatomical Location	GASTROINTESTINAL TRACT, UPPER	Upper Gastrointestinal Tract	The upper part of the gastrointestinal tract that includes the esophagus, stomach, and duodenum. (NCI)	Upper Gastrointestinal Tract
C25177	C74456		Anatomical Location	GENITALIA		The external sex organs. (NCI)	Genitalia
C32677	C74456		Anatomical Location	GINGIVA	Gingiva; Gum	The soft tissue surrounding the neck of individual teeth as well as covering the alveolar bone. The tissue is fibrous and continuous with the periodontal ligament and mucosal covering. (NCI)	Gingiva
C32682	C74456		Anatomical Location	GLENOID FOSSA	Glenoid Fossa	The trough in the head of the scapula that receives the head of the humerus to form the shoulder joint. (NCI)	Glenoid Fossa
C13250	C74456		Anatomical Location	GLOMERULUS		A cluster of convoluted capillaries beginning at each nephric tubule in the kidney and held together by connective tissue.	Glomerulus
C12723	C74456		Anatomical Location	GLOSSOPHARYNGEAL NERVE		The ninth cranial nerve.	Glossopharyngeal Nerve
C12724	C74456		Anatomical Location	GLOTTIS	Glottis	The space in which the vocal cords are located. (NCI)	Glottis
C52560	C74456		Anatomical Location	GLUTEUS MAXIMUS		The outermost and largest muscle of the buttocks. (NCI)	Gluteus Maximus
C32698	C74456		Anatomical Location	GREAT TROCHANTER	Great Trochanter	A large, irregular, quadrilateral area of bone found at the neck of the femur. (NCI)	Great Trochanter
C12262	C74456		Anatomical Location	GREATER CURVATURE OF THE STOMACH	Greater Curvature of the Stomach	The lateral and inferior border of the stomach. Attached to it is the greater omentum. (NCI)	Greater Curvature of the Stomach
C32705	C74456		Anatomical Location	HAIR	Hair	The filamentous outgrowth of the epidermis. (NCI)	Hair
C32706	C74456		Anatomical Location	HAIR BULB		The lower segment of the hair that circles the dermal papilla and the hair matrix. (NCI)	Hair Bulb
C13317	C74456		Anatomical Location	HAIR FOLLICLE		A tube-like invagination of the epidermis from which the hair shaft develops and into which the sebaceous glands open; the follicle is lined by a cellular inner and outer root sheath of epidermal origin and is invested with a fibrous sheath derived from the dermis. (NCI)	Hair Follicle
C32711	C74456		Anatomical Location	HAIR ROOT		The portion of the hair that is enclosed within the hair follicle. (NCI)	Hair Root
C33543	C74456		Anatomical Location	HAIR SHAFT	Shaft of the Hair	The segment of the hair that projects above the skin surface. (NCI)	Shaft of the Hair
C12860	C74456		Anatomical Location	HAMATE BONE	Hamate Bone	The medial bone in the distal row of carpal bones. (NCI)	Hamate Bone
C32712	C74456		Anatomical Location	HAND	Hand	The distal portion of the upper extremity. It consists of the carpus, metacarpus, and digits. (NCI)	Hand
C52834	C74456		Anatomical Location	HAND DIGIT 1	Thumb	The thick and short hand digit which is next to the index finger in humans. (NCI)	Hand Digit 1
C52835	C74456		Anatomical Location	HAND DIGIT 2	Index Finger	The second finger from the radial side of the hand, next to the thumb. (NCI)	Hand Digit 2
C52836	C74456		Anatomical Location	HAND DIGIT 3	Middle Finger	The middle or third finger from the radial side of the hand. (NCI)	Hand Digit 3
C52837	C74456		Anatomical Location	HAND DIGIT 4	Ring Finger	The fourth finger from the radial side of the hand. (NCI)	Hand Digit 4
C52838	C74456		Anatomical Location	HAND DIGIT 5	Little Finger	The fifth and smallest finger from the radial side of the hand. (NCI)	Hand Digit 5
C52771	C74456		Anatomical Location	HAND PHALANX	Hand Phalanx	A bone of the hand. (NCI)	Hand Phalanx
C12230	C74456		Anatomical Location	HARD PALATE	Hard Palate	The bony anterior part of the roof of the mouth separating the nose from the mouth. (NCI)	Hard Palate
C12419	C74456		Anatomical Location	HEAD	Head	The anterior and superior part of a human or animal bearing the mouth, the brain and sensory organs.	Head
C12418	C74456		Anatomical Location	HEAD AND NECK		The area of the body comprising the skull, facial bones and the cervical vertebrae, sinuses, orbits, salivary glands, oral cavity, oropharynx, larynx, thyroid, facial and neck musculature, soft tissue and lymph nodes draining these areas.	Head and Neck
C32720	C74456		Anatomical Location	HEAD OF THE HUMERUS	Head of the Humerus	The upper rounded part of the humerus that fits into the glenoid cavity of the scapula. (NCI)	Head of the Humerus
C12727	C74456		Anatomical Location	HEART	Cardiac; Heart	A hollow muscular organ which receives the blood from the veins and propels it into the arteries. It is divided by a musculomembranous septum into two halves -- right or venous and left or arterial -- each of which consists of a receiving chamber (atrium) and an ejecting chamber (ventricle). (NCI)	Heart
C32126	C74456		Anatomical Location	HEART, APEX	Apex of the Heart	The most outer superficial part of the heart which is situated on the left 5th intercostal space. (NCI)	Apex of the Heart
C12728	C74456		Anatomical Location	HEART, ATRIUM	Cardiac Atrium	The paired upper chambers of the heart. The left atrium receives oxygenated blood from the pulmonary vein and pumps blood into the left ventricle. The right atrium receives venous deoxygenated blood from the entire body via the superior and inferior vena cavae and pumps blood into the right ventricle. (NCI)	Cardiac Atrium
C48589	C74456		Anatomical Location	HEART, BASE	Base of the Heart	The superior portion of the heart located opposite to the apical portion. It is formed mainly by the left atrium. (NCI)	Base of the Heart
C12871	C74456		Anatomical Location	HEART, LEFT VENTRICLE	Left Ventricle	The left lower chamber of the heart that receives blood from the left atrium and pumps it through the aorta to the body. (NCI)	Left Ventricle
C12870	C74456		Anatomical Location	HEART, RIGHT VENTRICLE	Right Ventricle	The lower chamber of the heart located in the right side. It receives blood from the right atrium that is no longer oxygenated and it pumps it to the pulmonary artery. (NCI)	Right Ventricle
C49485	C74456		Anatomical Location	HEART, SEPTUM	Cardiac Septum	The tissue in the heart that separates the two atria (atrial septum) and the two ventricles (ventricular septum). (NCI)	Heart Septum
C12730	C74456		Anatomical Location	HEART, VENTRICLE	Cardiac Ventricle	The lower right and left chambers of the heart. The right pumps venous blood into the lungs and the left pumps oxygenated blood into the systemic arterial circulation. (MeSH)	Cardiac Ventricle
C119295	C74456		Anatomical Location	HEART, VENTRICULAR WALL		The tissue layers that form the cardiac ventricle. They include myocardium, endocardium, and pericardium. (NCI)	Ventricular Wall of the Heart
C32729	C74456		Anatomical Location	HEPATIC ARTERY		An artery arising from the celiac trunk that supplies the liver and branches to form the cystic, gastro-duodenalis and pyloric arteries.	Hepatic Artery
C77640	C74456		Anatomical Location	HEPATIC LYMPH NODE		Any of the lymph nodes adjacent to the stomach and duodenum. (NCI)	Hepatic Lymph Node
C25724	C74456		Anatomical Location	HILAR	Hilar	Refers to the area associated with the hilum. (NCI)	Hilar
C98187	C74456		Anatomical Location	HILAR LYMPH NODE		A lymph node located in the hilum of the lung within the mediastinum.	Pulmonary Hilar Lymph Node
C64193	C74456		Anatomical Location	HIP	Hip	The lateral prominence of the pelvis from the waist to the thigh. (NCI)	Hip
C32742	C74456		Anatomical Location	HIP JOINT	Coxofemoral Joint; Hip Joint	A ball-and-socket joint between the head of the femur and the acetabulum. (NCI)	Hip Joint
C12444	C74456		Anatomical Location	HIPPOCAMPUS	Hippocampus	A curved gray matter structure of the temporal lobe lying on the floor of the lateral ventricle of the brain. (NCI)	Hippocampus
C114187	C74456		Anatomical Location	HUMERAL EPICONDYLE		The bone prominence at the distal end of the humerus to which ligaments and tendons of the joints are attached.	Humeral Epicondyle
C12731	C74456		Anatomical Location	HUMERUS	Bone, Humeral; Humerus	The upper arm bone between the shoulder and elbow. (NCI)	Humerus
C120671	C74456		Anatomical Location	HUMERUS SHAFT		The cylindrical, elongated bony body of the humerus.	Humeral Shaft
C32752	C74456		Anatomical Location	HYOID BONE	Hyoid Bone	A U-shaped bone supporting the tongue. This bone is located at the base of the tongue and is suspended from the tips of the styloid processes of the temporal bones by the stylohyoid ligaments. (NCI)	Hyoid Bone
C12732	C74456		Anatomical Location	HYPOGLOSSAL NERVE		The twelfth cranial nerve.	Hypoglossal Nerve
C12246	C74456		Anatomical Location	HYPOPHARYNX	Hypopharynx	The lower part of the pharynx that connects to the esophagus. (NCI)	Hypopharynx
C12458	C74456		Anatomical Location	HYPOTHALAMUS	Hypothalamus	The supervisory center in the brain, rich in ganglia, nerve fibers, and synaptic connections. It is composed of several sections called nuclei, each of which controls a specific function.	Hypothalamus
C12387	C74456		Anatomical Location	ILEUM	Ileum	The final section of the small intestine. (NCI)	Ileum
C33757	C74456		Anatomical Location	ILEUM, TERMINAL	Terminal Ileum	The most distal section of the ileum that is continuous with the cecum. (NCI)	Terminal Ileum
C103818	C74456		Anatomical Location	ILIAC CREST		A predominate bone structure which borders the ilium wing stretching from the anterior superior iliac spine to the posterior superior iliac spine.	Iliac Crest
C103454	C74456		Anatomical Location	ILIAC FOSSA		The large smooth and concave surface of the ilium. (NCI)	Iliac Fossa
C32761	C74456		Anatomical Location	ILIAC LYMPH NODE	Iliac Lymph Node	One of the three lymph nodes of the pelvis: the superior gluteal, interior gluteal or sacral. (NCI)	Iliac Lymph Node
C32765	C74456		Anatomical Location	ILIUM	Ilium	The broad, dorsal, upper, and widest of the three principal bones composing either half of the pelvis. (NCI)	Ilium
C32769	C74456		Anatomical Location	INCISOR	Incisor	One of the teeth in front of the canines in either jaw designed for cutting or gnawing. (NCI)	Incisor
C32770	C74456		Anatomical Location	INCUS	Incus	One of the three bones comprising the middle ear. This anvil-shaped bone is positioned between the malleus and the stapes. (NCI)	Incus
C63705	C74456		Anatomical Location	INFRACLAVICULAR LYMPH NODE	Infraclavicular Lymph Node	A lymph node located in the area below the clavicle. (NCI)	Infraclavicular Lymph Node
C116179	C74456		Anatomical Location	INFRARENAL AORTA		The portion of the abdominal aorta that lies below the kidneys.	Infrarenal Aortic Segment
C12509	C74456		Anatomical Location	INFRATENTORIAL BRAIN		The part of the brain below the tentorium cerebellum. (NCI)	Infratentorial Brain
C32801	C74456		Anatomical Location	INGUINAL LYMPH NODE	Inguinal Lymph Node	A superficial or deep lymph node located in the inguinal area. (NCI)	Inguinal Lymph Node
C12726	C74456		Anatomical Location	INGUINAL REGION	Groin	The lower region of the anterior abdominal wall located laterally to the pubic region. (NCI)	Inguinal Region
C32845	C74456		Anatomical Location	INTERNAL ILIAC ARTERY		A short thick blood vessel arising from the bifurcation of the common iliac artery with numerous branches that supply the organs, walls and viscera of the pelvis as well as the inner thigh.	Internal Iliac Artery
C88142	C74456		Anatomical Location	INTERNAL ILIAC LYMPH NODE		A lymph node located along the internal iliac artery. (NCI)	Internal Iliac Lymph Node
C52941	C74456		Anatomical Location	INTERNAL MAMMARY ARTERY		The blood vessel that supplies the breast and the anterior chest wall with arterial blood. It is located in the chest wall. (NCI)	Internal Mammary Artery
C32853	C74456		Anatomical Location	INTERNAL MAMMARY LYMPH NODE		Any of the lymph nodes of the breast located under the ribcage, near the sternum. (NCI)	Internal Mammary Lymph Node
C102301	C74456		Anatomical Location	INTERPHALANGEAL JOINT 1	IP1	A ginglymoid (hinge) synovial joint within the first digit of the hand or foot connecting the proximal and distal phalanges. (NCI)	Interphalangeal Joint 1
C114200	C74456		Anatomical Location	INTERPHALANGEAL JOINT 1 OF THE FOOT	IP1 of the Foot	A ginglymoid (hinge) synovial joint within the first digit of the foot connecting the proximal and distal phalanges. (NCI)	Interphalangeal Joint 1 of the Foot
C102302	C74456		Anatomical Location	INTERPHALANGEAL JOINT 2	IP2	A ginglymoid (hinge) synovial joint between the phalanges of the second digit of the hand or foot. (NCI)	Interphalangeal Joint 2
C114201	C74456		Anatomical Location	INTERPHALANGEAL JOINT 2 OF THE FOOT	IP2 of the Foot	A ginglymoid (hinge) synovial joint between the phalanges of the second digit of the foot. (NCI)	Interphalangeal Joint 2 of the Foot
C114190	C74456		Anatomical Location	INTERPHALANGEAL JOINT 2 OF THE HAND	IP2 of the Hand	A ginglymoid (hinge) synovial joint between the phalanges of the second digit of the hand. (NCI)	Interphalangeal Joint 2 of the Hand
C102303	C74456		Anatomical Location	INTERPHALANGEAL JOINT 3	IP3	A ginglymoid (hinge) synovial joint between the phalanges of the third digit of the hand or foot. (NCI)	Interphalangeal Joint 3
C114202	C74456		Anatomical Location	INTERPHALANGEAL JOINT 3 OF THE FOOT	IP3 of the Foot	A ginglymoid (hinge) synovial joint between the phalanges of the third digit of the foot. (NCI)	Interphalangeal Joint 3 of the Foot
C114191	C74456		Anatomical Location	INTERPHALANGEAL JOINT 3 OF THE HAND	IP3 of the Hand	A ginglymoid (hinge) synovial joint between the phalanges of the third digit of the hand. (NCI)	Interphalangeal Joint 3 of the Hand
C102304	C74456		Anatomical Location	INTERPHALANGEAL JOINT 4	IP4	A ginglymoid (hinge) synovial joint between the phalanges of the fourth digit of the hand or foot. (NCI)	Interphalangeal Joint 4
C114203	C74456		Anatomical Location	INTERPHALANGEAL JOINT 4 OF THE FOOT	IP4 of the Foot	A ginglymoid (hinge) synovial joint between the phalanges of the fourth digit of the foot. (NCI)	Interphalangeal Joint 4 of the Foot
C114192	C74456		Anatomical Location	INTERPHALANGEAL JOINT 4 OF THE HAND	IP4 of the Hand	A ginglymoid (hinge) synovial joint between the phalanges of the fourth digit of the hand. (NCI)	Interphalangeal Joint 4 of the Hand
C102305	C74456		Anatomical Location	INTERPHALANGEAL JOINT 5	IP5	A ginglymoid (hinge) synovial joint between the phalanges of the fifth digit of the hand or foot. (NCI)	Interphalangeal Joint 5
C114204	C74456		Anatomical Location	INTERPHALANGEAL JOINT 5 OF THE FOOT	IP5 of the Foot	A ginglymoid (hinge) synovial joint between the phalanges of the fifth digit of the foot. (NCI)	Interphalangeal Joint 5 of the Foot
C114193	C74456		Anatomical Location	INTERPHALANGEAL JOINT 5 OF THE HAND	IP5 of the Hand	A ginglymoid (hinge) synovial joint between the phalanges of the fifth digit of the hand. (NCI)	Interphalangeal Joint 5 of the Hand
C32868	C74456		Anatomical Location	INTERPHALANGEAL JOINT OF THE HAND	Interphalangeal Joint of the Hand	The hinge synovial joints between the phalanges of the fingers. (NCI)	Interphalangeal Joint of the Hand
C32867	C74456		Anatomical Location	INTERPHALANGEAL OF THE FOOT	IP of the Foot	The hinge synovial joints between the bones of the toes. (NCI)	Interphalangeal Joint of the Foot
C102306	C74456		Anatomical Location	INTERPHALANGEAL THUMB JOINT	IP THUMB; IP1 of the Hand; Interphalangeal Joint 1 of the Hand	A condyloid synovial joint within the thumb connecting the proximal and distal phalanges.	Interphalangeal Thumb Joint
C120672	C74456		Anatomical Location	INTERTROCHANTERIC REGION		The bony region in the proximal portion of the femur between the greater, lesser and sub- (also called the third) trochanters.	Intertrochanteric Region
C32874	C74456		Anatomical Location	INTERVENTRICULAR SEPTUM		The wall that separates the left and right ventricles of the heart. (NCI)	Interventricular Septum
C12736	C74456		Anatomical Location	INTESTINE	Intestine	The portion of the gastrointestinal tract between the stomach and the anus. It includes the small intestine and large intestine. (NCI)	Intestine
C12677	C74456		Anatomical Location	INTRAHEPATIC BILE DUCT		The bile ducts that pass through and drain bile from the liver. (NCI)	Intrahepatic Bile Duct
C12359	C74456		Anatomical Location	INTRATHORACIC LYMPH NODE		Any lymph node within the thoracic cavity.	Intrathoracic Lymph Node
C105446	C74456		Anatomical Location	ISCHIAL TUBEROSITY		The bony prominence of the lower part of the ischium. (NCI)	Ischial Tuberosity
C103455	C74456		Anatomical Location	ISCHIORECTAL FOSSA		A tetrahedral region of adipose tissue located in the ischiorectal region with its base between the tuberosity of the ischium and the lower end of the rectum and its apex at the point where the obturator fascia and the Levator ani membrane divide.	Ischiorectal Fossa
C32884	C74456		Anatomical Location	ISCHIUM	Ischium	The most posterior and ventral bone making up the pelvis. (NCI)	Ischium
C12388	C74456		Anatomical Location	JEJUNUM	Jejunum	The portion of the small intestine that extends from the duodenum to the ileum. (NCI)	Jejunum
C13044	C74456		Anatomical Location	JOINT	Articulation; Joint	The connection point between two bones or skeletal elements. The joint may be fixed or movable. (NCI)	Joint
C12738	C74456		Anatomical Location	JUGULAR VEIN	Vena Jugularis	Veins in the neck which drain the brain, face, and neck into the brachiocephalic or subclavian veins. (NCI)	Jugular Vein
C12415	C74456		Anatomical Location	KIDNEY	Kidney	One of the two bean-shaped organs located on each side of the spine in the retroperitoneum. The right kidney is located below the liver and the left kidney below the diaphragm. The kidneys filter and secret the metabolic products and minerals from the blood, thus maintaining the homeostasis. On the superior pole of each kidney there is an adrenal gland. Each kidney and adrenal gland is surrounded by fat. (NCI)	Kidney
C12739	C74456		Anatomical Location	KIDNEY, CORTEX	Renal Cortex	The outer zone of the KIDNEY, beneath the capsule, consisting of KIDNEY GLOMERULUS; KIDNEY TUBULES, DISTAL; and KIDNEY TUBULES, PROXIMAL. (MSH2001)	Renal Cortex
C32740	C74456		Anatomical Location	KIDNEY, HILUM	Hilar Area of the Kidney	The concave area of the kidney through which the renal artery enters and the renal vein and ureter exit the organ. (NCI)	Hilar Area of the Kidney
C93180	C74456		Anatomical Location	KIDNEY, LOWER LOBE	Lower Lobe of the Kidney	The lobe of the kidney located in the lowest portion of the kidney. (NCI)	Lower Lobe of Kidney
C12740	C74456		Anatomical Location	KIDNEY, MEDULLA	Renal Medulla	The internal portion of the kidney, consisting of striated conical masses, the renal pyramids, whose bases are adjacent to the cortex and whose apices form prominent papillae projecting into the lumen of the minor calyces. (MSH2001)	Renal Medulla
C93179	C74456		Anatomical Location	KIDNEY, UPPER LOBE	Upper Lobe of the Kidney	The lobe of the kidney located in the uppermost region of the kidney. (NCI)	Upper Lobe of Kidney
C32898	C74456		Anatomical Location	KNEE JOINT	Knee; Tibiofemoral Joint	A joint connecting the lower part of the femur with the upper part of the tibia. The lower part of the femur and the upper part of the tibia are attached to each other by ligaments. Other structures of the knee joint include the upper part of the fibula, located below and parallel to the tibia, and the patella which moves as the knee bends. (NCI)	Knee Joint
C32899	C74456		Anatomical Location	L1 VERTEBRA	L1 Vertebra	The first lumbar vertebra counting from the top down. (NCI)	L1 Vertebra
C32900	C74456		Anatomical Location	L2 VERTEBRA	L2 Vertebra	The second lumbar vertebra counting from the top down. (NCI)	L2 Vertebra
C112327	C74456		Anatomical Location	L2-L3 INTERVERTEBRAL SPACE		The space between the L2 and L3 vertebrae.	L2-L3 Intervertebral Space
C32901	C74456		Anatomical Location	L3 VERTEBRA	L3 Vertebra	The third lumbar vertebra counting from the top down. (NCI)	L3 Vertebra
C112328	C74456		Anatomical Location	L3-L4 INTERVERTEBRAL SPACE		The space between the L3 and L4 vertebrae.	L3-L4 Intervertebral Space
C32902	C74456		Anatomical Location	L4 VERTEBRA	L4 Vertebra	The fourth lumbar vertebra counting from the top down. (NCI)	L4 Vertebra
C32903	C74456		Anatomical Location	L5 VERTEBRA	L5 Vertebra	The fifth lumbar vertebra counting from the top down. (NCI)	L5 Vertebra
C120673	C74456		Anatomical Location	L6 VERTEBRA		A congenital anomaly of the spine, where an extra or supernumerary lumbar vertebra arises from below the 5th lumbar vertebra.	Extra Lumbar Vertebra
C32906	C74456		Anatomical Location	LACRIMAL BONE	Lacrimal Bone	A small rectangular thin plate forming part of the medial orbit wall. It is located posterior to the frontal process of the maxilla and articulates with the inferior nasal concha, ethmoid, frontal, and maxillary bones. (NCI)	Lacrimal Bone
C12346	C74456		Anatomical Location	LACRIMAL GLAND		Paired, almond-shaped exocrine glands situated superior and posterior to each orbit of the eye that produce and secrete the watery serous component of tears. (NCI)	Lacrimal Gland
C102313	C74456		Anatomical Location	LAD SEPTAL PERFORATOR ARTERY	LAD SEPTAL PERFORATOR ARTERY SEGMENTS; LAD SP	The arteries that arise from the left anterior descending (LAD) artery that supply the interventricular septum.	Left Anterior Descending Septal Perforator Artery
C12379	C74456		Anatomical Location	LARGE INTESTINE	Large Intestine	A muscular tube that extends from the end of the small intestine to the anus. (NCI)	Large Intestine
C12420	C74456		Anatomical Location	LARYNX	Larynx	The cartilaginous structure of the respiratory tract between the pharynx and the trachea. It contains elastic vocal cords required for sound production. (NCI)	Larynx
C102307	C74456		Anatomical Location	LATERAL FIRST DIAGONAL BRANCH ARTERY	LAT 1ST DIAG; LATERAL FIRST DIAGONAL BRANCH ARTERY SEGMENT	The lateral branch distal to a bifurcation of the first diagonal artery.	Lateral First Diagonal Branch Artery
C102308	C74456		Anatomical Location	LATERAL FIRST OBTUSE MARGINAL BRANCH ARTERY	First Obtuse Marginal Lateral Branch; LAT 1ST OM; LATERAL FIRST OBTUSE MARGINAL BRANCH ARTERY SEGMENT	The lateral branch distal to a bifurcation of the first obtuse marginal artery.	Lateral First Obtuse Marginal Branch Artery
C102309	C74456		Anatomical Location	LATERAL RAMUS INTERMEDIUS ARTERY	LAT RAMUS; LATERAL RAMUS INTERMEDIUS ARTERY SEGMENT	The lateral branch distal to a bifurcation of the ramus intermedius artery.	Lateral Ramus Intermedius Artery
C102310	C74456		Anatomical Location	LATERAL SECOND DIAGONAL BRANCH ARTERY	LAT 2ND DIAG; LATERAL SECOND DIAGONAL BRANCH ARTERY SEGMENT	The lateral branch distal to a bifurcation of the second diagonal artery.	Lateral Second Diagonal Branch Artery
C102311	C74456		Anatomical Location	LATERAL SECOND OBTUSE MARGINAL BRANCH ARTERY	LAT 2ND OM; LATERAL SECOND OBTUSE MARGINAL BRANCH ARTERY SEGMENT; Second Obtuse Marginal Lateral Branch	The lateral branch distal to a bifurcation of the second obtuse marginal artery.	Lateral Second Obtuse Marginal Branch Artery
C102312	C74456		Anatomical Location	LATERAL THIRD DIAGONAL BRANCH ARTERY	LAT 3RD DIAG; LATERAL THIRD DIAGONAL BRANCH ARTERY SEGMENT	The lateral branch distal to a bifurcation of the third diagonal artery.	Lateral Third Diagonal Branch Artery
C102425	C74456		Anatomical Location	LATERAL THIRD OBTUSE MARGINAL BRANCH ARTERY	LAT 3RD OM; LATERAL THIRD OBTUSE MARGINAL BRANCH ARTERY SEGMENT; Third Obtuse Marginal Lateral Branch	The lateral branch distal to a bifurcation of the third obtuse marginal artery.	Lateral Third Obtuse Marginal Branch Artery
C116175	C74456		Anatomical Location	LEFT ANTERIOR DESCENDING ARTERY OSTIUM		The opening of the left anterior descending coronary artery at its origin.	Left Anterior Descending Artery Ostium
C116177	C74456		Anatomical Location	LEFT ATRIOVENTRICULAR ARTERY		The first posterolateral branch originating from the posterior atrioventricular left circumflex artery in left dominant and mixed circulations.	Left Atrioventricular Artery
C116176	C74456		Anatomical Location	LEFT CIRCUMFLEX ARTERY OSTIUM		The opening of the left circumflex artery at its origin.	Left Circumflex Artery Ostium
C12874	C74456		Anatomical Location	LEFT CIRCUMFLEX CORONARY ARTERY		An artery arising from the bifurcation of the left coronary artery that runs along the coronary groove.	Circumflex Branch of the Left Coronary Artery
C116174	C74456		Anatomical Location	LEFT MAIN CORONARY ARTERY BIFURCATION		The portion of the distal end of the left main coronary artery that branches into the left anterior descending artery and the left circumflex artery.	Left Main Coronary Artery Bifurcation
C116173	C74456		Anatomical Location	LEFT MAIN CORONARY ARTERY BODY		The segment of the left main coronary artery that is bounded by its ostium and bifurcation.	Left Main Coronary Artery Body
C116172	C74456		Anatomical Location	LEFT MAIN CORONARY ARTERY OSTIUM		The opening of the left coronary artery at its origin.	Left Main Coronary Artery Ostium
C116178	C74456		Anatomical Location	LEFT POSTERIOR DESCENDING ARTERY		The second posterolateral branch originating from the posterior atrioventricular left circumflex artery in left dominant and mixed circulations.	Left Posterior Descending Artery
C102314	C74456		Anatomical Location	LEFT POSTEROLATERAL DESCENDING ARTERY	LEFT POSTEROLATERAL DESCENDING ARTERY SEGMENT; LPDA	In an individual with a left-dominant heart, this branch arises from the circumflex artery atrioventricular groove continuation and supplies the inferior apex of the heart.	Left Posterolateral Descending Artery
C102315	C74456		Anatomical Location	LEFT VENTRICULAR EPICARDIUM		The outermost layer of cardiac tissue lining of the left ventricle.	Left Ventricular Epicardium
C32974	C74456		Anatomical Location	LEG	Leg	One of the two lower extremities in humans used for locomotion and support. (NCI)	Leg
C52749	C74456		Anatomical Location	LEG SKIN	Leg Skin	The skin or integument surrounding the leg. (NCI)	Leg Skin
C12743	C74456		Anatomical Location	LENS	Crystalline Lens; Lens; Lens Of Eye; Ocular Lens	A biconvex transparent structure of the eye through which light is focused on the retina. The lens sits behind the iris and is supported by the zonule, which connects it to the ciliary body. The lens is an avascular structure. (NCI)	Lens
C32982	C74456		Anatomical Location	LESSER TROCHANTER		A cone-shaped projection in the shaft of the femur in which the iliopsoas muscle is attached. (NCI)	Lesser Trochanter
C13046	C74456		Anatomical Location	LIGAMENT	Ligament	Band of fibrous tissue connecting bone to bone or cartilage to bone thereby supporting or strengthening a joint. (NCI)	Ligament
C12429	C74456		Anatomical Location	LIMB	Extremities; Limb	A body region referring to an upper or lower extremity. (NCI)	Limb
C12742	C74456		Anatomical Location	LIMB, LOWER	Lower Extremity	The limb that is composed of the hip, thigh, leg and foot. (NCI)	Lower Extremity
C12671	C74456		Anatomical Location	LIMB, UPPER	Upper Extremity	The region of the body that extends distal to the scapulohumeral joint.	Upper Extremity
C40373	C74456		Anatomical Location	LINGULA OF THE LUNG		A small tongue-like projection from the lower portion of the upper lobe of the left lung.	Lingula of the Lung
C12220	C74456		Anatomical Location	LIP	Lip	Fleshy fold which surrounds the opening of the mouth. (NCI)	Lip
C12222	C74456		Anatomical Location	LIP, LOWER	External Lower Lip	The external surface of the lower lip. (NCI)	External Lower Lip
C12221	C74456		Anatomical Location	LIP, UPPER	External Upper Lip	The external surface of the upper lip. (NCI)	External Upper Lip
C12392	C74456		Anatomical Location	LIVER		An abdominal organ that has variable lobation which are composed of hepatic lobules.	Liver
C32996	C74456		Anatomical Location	LIVER FISSURE	Liver Fissure	A groove on the surface of the liver.	Liver Fissure
C33000	C74456		Anatomical Location	LIVER, CAUDATE LOBE		The lobe of the liver situated posteriorly located between the left lobe and the inferior vena cava.	Caudate Lobe
C32965	C74456		Anatomical Location	LIVER, LEFT LOBE		The smaller lobe of the liver extending into the left side of the body.	Left Lobe of the Liver
C112404	C74456		Anatomical Location	LIVER, QUADRATE LOBE		An oblong shaped area of the liver that is situated inferior to the right lobe, bounded by the anterior margin of the liver and the porta hepatis.	Quadrate Lobe of Liver
C33481	C74456		Anatomical Location	LIVER, RIGHT LOBE		The larger lobe of the liver extending into the right side of the body.	Right Lobe of the Liver
C97333	C74456		Anatomical Location	LOCUS CERULEUS		A brainstem nucleus. It is the major brain site for the synthesis and secretion of norepinephrine. (NCI)	Locus Coeruleus
C33012	C74456		Anatomical Location	LOWER RESPIRATORY SYSTEM		The part of the respiratory system below the bifurcation of the trachea. It includes the lungs and the parts of the lungs such as the bronchi, bronchioles and alveoli.	Lower Respiratory System
C34004	C74456		Anatomical Location	LUMBAR REGION		The area of the body below the ribs and above the hipbones. (NCI)	Lumbar Region
C69314	C74456		Anatomical Location	LUMBAR SPINE		The vertebrae located below the thoracic and above the sacral vertebrae.	Lumbar Spine
C12744	C74456		Anatomical Location	LUMBAR VERTEBRA	Lumbar Vertebra	Any of the vertebrae situated between the thoracic vertebrae and the sacrum in the lower part of the spine.	Lumbar Vertebra
C12786	C74456		Anatomical Location	LUNATE BONE	Lunate Bone	The bone in the proximal row of carpal bones that lies between the scaphoid and triquetral bones. (NCI)	Lunate Bone
C12468	C74456		Anatomical Location	LUNG		An organ of respiration occupying the pulmonary cavity of the thorax, in which aeration of the blood takes place.	Lung
C49282	C74456		Anatomical Location	LUNG, HILUM	Hilar Area of the Lung	The wedge-shaped area at the central portion of the lung through which the bronchi, vessels and nerves enter or exit the organ. (NCI)	Hilar Area of the Lung
C32967	C74456		Anatomical Location	LUNG, LEFT	Left Lung	The 2-lobed lung located on the left side of the body. (NCI)	Left Lung
C33020	C74456		Anatomical Location	LUNG, LEFT LOWER LOBE	Lower Lobe of the Left Lung	The larger lobe of the left lung, situated below and behind the oblique fissure. (NCI)	Lower Lobe of the Left Lung
C33021	C74456		Anatomical Location	LUNG, LEFT UPPER LOBE	Upper Lobe of the Left Lung	The smaller lobe of the left lung, situated above and in front the oblique fissure, which includes the apex. (NCI)	Upper Lobe of the Left Lung
C33483	C74456		Anatomical Location	LUNG, RIGHT	Right Lung	The 3-lobed lung located on the right side of the body. (NCI)	Right Lung
C33022	C74456		Anatomical Location	LUNG, RIGHT LOWER LOBE	Lower Lobe of the Right Lung	The lobe of the right lung situated below the oblique fissure. (NCI)	Lower Lobe of the Right Lung
C12286	C74456		Anatomical Location	LUNG, RIGHT MIDDLE LOBE	Middle Lobe of the Right Lung	The smallest lobe of the right lung, situated above the oblique fissure and below the horizontal fissure. (NCI)	Middle Lobe of the Right Lung
C33023	C74456		Anatomical Location	LUNG, RIGHT UPPER LOBE	Upper Lobe of the Right Lung	The lobe of the right lung, situated above the horizontal fissure, which includes the apex. (NCI)	Upper Lobe of the Right Lung
C12745	C74456		Anatomical Location	LYMPH NODE	Lymph Node; Lymphatic Gland	A bean-shaped organ surrounded by a connective tissue capsule. It is part of the lymphatic system and is found through out the body. It is composed predominantly of lymphocytes and its main function is immune protection. (NCI)	Lymph Node
C33031	C74456		Anatomical Location	LYMPH NODE HILUM	Lymph Node Hilum	The concave side of the lymph node. (NCI)	Lymph Node Hilum
C32968	C74456		Anatomical Location	MAIN BRONCHUS, LEFT	Left Main Bronchus	One of the two main bronchi. It is narrower but longer than the right main bronchus and connects to the left lung. (NCI)	Left Main Bronchus
C33486	C74456		Anatomical Location	MAIN BRONCHUS, RIGHT	Right Main Bronchus	One of the two main bronchi. It is wider but shorter than the left main bronchus and connects to the right lung. (NCI)	Right Main Bronchus
C61599	C74456		Anatomical Location	MALE GENITALIA	Male Genitalia	Male internal and external organs of reproduction.	Male Genitalia
C12722	C74456		Anatomical Location	MALE REPRODUCTIVE SYSTEM		The sex organs of the male.	Male Reproductive System
C33051	C74456		Anatomical Location	MALLEUS	Malleus	A hammer-shaped bone, part of three interconnected small bones located in the middle ear. It is attached to the inner surface of the tympanic membrane and its function is to transmit sound vibrations. (NCI)	Malleus
C12367	C74456		Anatomical Location	MAMMARY GLAND		Lactiferous glands consisting of fibrous tissue connecting the lobes and fatty tissue in between the lobes.	Mammary Gland
C12290	C74456		Anatomical Location	MANDIBLE	Bone, Mandibular; Inferior Maxillary Bone; Lower Jaw; Mandible	The lower jaw bone holding the lower teeth. (NCI)	Mandible
C12503	C74456		Anatomical Location	MASTOID PROCESS	Mastoid Process	A honeycombed section of bone located near the base of the skull, protruding behind the outer ear. It is connected to the middle ear. (NCI)	Mastoid Process
C26470	C74456		Anatomical Location	MAXILLA	Maxilla	The upper jawbone in vertebrates: it is fused to the cranium. (NCI)	Maxilla
C12275	C74456		Anatomical Location	MAXILLARY SINUS	Maxillary Sinus	A pyramidal-shaped, thin-walled, air-filled cavity located in the maxilla. It is lined by mucus membrane and periosteum (mucoperiosteum) which contains cilia. It is adjacent to the nasal cavity and communicates with the middle meatus of the nose. It is the largest paranasal sinus and is composed of three recesses: alveolar, zygomatic, and infraorbital. (NCI)	Maxillary Sinus
C103417	C74456		Anatomical Location	MEDIAN OR LOWER CERVICAL LYMPH NODE		A lymph node located in the median or lower region of the neck. (NCI)	Median Or Lower Cervical Lymph Node
C33073	C74456		Anatomical Location	MEDIASTINAL LYMPH NODE	Mediastinal Lymph Node	A lymph node located in the mediastinum. Mediastinal lymph nodes are arranged in three groups, one on the lateral, another on the medial, and a third on the anterior aspect of the vessels; the third group is, however, sometimes absent. (NCI)	Mediastinal Lymph Node
C12748	C74456		Anatomical Location	MEDIASTINUM	Mediastinum	A group of organs surrounded by loose connective tissue, separating the two pleural sacs, between the sternum anteriorly and the vertebral column posteriorly as well as from the thoracic inlet superiorly to the diaphragm inferiorly. The mediastinum contains the heart and pericardium, the bases of the great vessels, the trachea and bronchi, esophagus, thymus, lymph nodes, thoracic duct, phrenic and vagus nerves, and other structures and tissues. (NCI)	Mediastinum
C32098	C74456		Anatomical Location	MEDIASTINUM, ANTERIOR	Anterior Mediastinum	The area between the lungs; it contains the thymus, some lymph nodes, and vessels and branches of the internal thoracic artery. (NCI)	Anterior Mediastinum
C33123	C74456		Anatomical Location	MEDIASTINUM, MIDDLE	Middle Mediastinum	The broadest part of the lower portion of the mediastinum. It contains the heart and the great vessels. (NCI)	Middle Mediastinum
C33368	C74456		Anatomical Location	MEDIASTINUM, POSTERIOR	Posterior Mediastinum	The part of the lower portion of the mediastinum that is located behind the pericardium. (NCI)	Posterior Mediastinum
C33684	C74456		Anatomical Location	MEDIASTINUM, SUPERIOR	Superior Mediastinum	The part of the mediastinum that is located between the upper part of the sternum in the front and the upper thoracic vertebrae in the back. (NCI)	Superior Mediastinum
C12442	C74456		Anatomical Location	MEDULLA OBLONGATA	Medulla Oblongata	The lower portion of the brainstem located between the pons and brainstem. This structure contains several descending and ascending tracts, lower cranial nerve nuclei, a significant proportion of the reticular system of the brainstem and other structures. (NCI)	Medulla Oblongata
C52975	C74456		Anatomical Location	MESENTERIC ARTERY		A branch of the abdominal aorta that supplies blood to the intestines. (NCI)	Mesenteric Artery
C77641	C74456		Anatomical Location	MESENTERIC LYMPH NODE		A lymph node located in the mesentery. (NCI)	Mesenteric Lymph Node
C33103	C74456		Anatomical Location	MESENTERY		A double layer of peritoneum that attaches to the back wall of the abdominal cavity and supports the small intestines. (NCI)	Mesentery
C12751	C74456		Anatomical Location	METACARPAL BONE		Any of the five bones between the wrist and the fingers that form the skeleton of the palm. (NCI)	Metacarpal Bone
C102316	C74456		Anatomical Location	METACARPOPHALANGEAL JOINT 1	MCP1	A condyloid synovial joint within the first digit of the hand connecting the metacarpal to the proximal phalanx.	Metacarpophalangeal Joint 1
C102317	C74456		Anatomical Location	METACARPOPHALANGEAL JOINT 2	MCP2	A condyloid synovial joint within the second digit of the hand connecting the metacarpal to the proximal phalanx.	Metacarpophalangeal Joint 2
C102318	C74456		Anatomical Location	METACARPOPHALANGEAL JOINT 3	MCP3	A condyloid synovial joint within the third digit of the hand connecting the metacarpal to the proximal phalanx.	Metacarpophalangeal Joint 3
C102319	C74456		Anatomical Location	METACARPOPHALANGEAL JOINT 4	MCP4	A condyloid synovial joint within the fourth digit of the hand connecting the metacarpal to the proximal phalanx.	Metacarpophalangeal Joint 4
C102320	C74456		Anatomical Location	METACARPOPHALANGEAL JOINT 5	MCP5	A condyloid synovial joint within the fifth digit of the hand connecting the metacarpal to the proximal phalanx.	Metacarpophalangeal Joint 5
C12752	C74456		Anatomical Location	METATARSAL BONE	Metatarsal Bone	A bone belonging to the middle part of the foot located between toes and ankle. There are 5 metatarsal bones and they are numbered from the medial side. (NCI)	Metatarsal Bone
C33108	C74456		Anatomical Location	METATARSOPHALANGEAL JOINT	Metatarsophalangeal Joint	A spheroid joint located between the heads of the metatarsal bone and the base of the proximal phalanx of the toe. (NCI)	Metatarsophalangeal Joint
C102321	C74456		Anatomical Location	METATARSOPHALANGEAL JOINT 1	MTP1	A condyloid synovial joint within the first digit of the foot connecting metatarsal with the proximal phalanx.	Metatarsophalangeal Joint 1
C102322	C74456		Anatomical Location	METATARSOPHALANGEAL JOINT 2	MTP2	A condyloid synovial joint within the second digit of the foot connecting metatarsal with the proximal phalanx.	Metatarsophalangeal Joint 2
C102323	C74456		Anatomical Location	METATARSOPHALANGEAL JOINT 3	MTP3	A condyloid synovial joint within the third digit of the foot connecting metatarsal with the proximal phalanx.	Metatarsophalangeal Joint 3
C102324	C74456		Anatomical Location	METATARSOPHALANGEAL JOINT 4	MTP4	A condyloid synovial joint within the fourth digit of the foot connecting metatarsal with the proximal phalanx.	Metatarsophalangeal Joint 4
C102325	C74456		Anatomical Location	METATARSOPHALANGEAL JOINT 5	MTP5	A condyloid synovial joint within the fifth digit of the foot connecting metatarsal with the proximal phalanx.	Metatarsophalangeal Joint 5
C102326	C74456		Anatomical Location	MID-CIRCUMFLEX ARTERY	MCIRC; MID-CIRCUMFLEX ARTERY SEGMENT	The segment of the left circumflex artery between the first and second marginal branches.	Mid-Circumflex Artery
C102328	C74456		Anatomical Location	MID-LAD ARTERY	MID-LAD ARTERY SEGMENT; MLAD	The segment of the left anterior descending (LAD) artery between the first and third diagonal branches.	Mid-Left Anterior Descending Artery
C102329	C74456		Anatomical Location	MID-RIGHT CORONARY ARTERY CONDUIT	MID-RIGHT CORONARY ARTERY CONDUIT SEGMENT; MRCA; Mid-right Coronary Artery	The section of the right coronary artery between the right ventricular artery and the acute marginal artery.	Mid-Right Coronary Artery Conduit
C102327	C74456		Anatomical Location	MID/DISTAL LEFT ANTERIOR DESCENDING CORONARY ARTERY AND ALL DIAGONAL CORONARY BRANCHES		All of the arterial branches distal to the proximal left anterior descending coronary artery.	Mid-Distal Left Anterior Descending Coronary Artery and All Diagonal Coronary Branches
C12510	C74456		Anatomical Location	MIDBRAIN	Mesencephalon; Midbrain	The uppermost portion of the brainstem located between the pons and the diencephalon. The midbrain contains the cerebral peduncles, oculomotor, trochlear and red nuclei, substantia nigra and various other nuclei and tracts. (NCI)	Mesencephalon
C12274	C74456		Anatomical Location	MIDDLE EAR	Middle Ear	The part of the ear including the eardrum and ossicles. The middle ear leads to the inner ear. (NCI)	Middle Ear
C12753	C74456		Anatomical Location	MITRAL VALVE		A dual-flap valve of the heart that regulates the flow of blood between the left atrium and the left ventricle of the heart. (NCI)	Mitral Valve
C97339	C74456		Anatomical Location	MOTOR CORTEX		A brain region that is located in the dorsal part of the precentral gyrus. (NCI)	Primary Motor Cortex
C13166	C74456		Anatomical Location	MUCOSA	Mucosa; Mucous Membrane	The moist, inner lining of some organs and body cavities (such as the nose, mouth, lungs, and stomach). Glands in the mucosa make mucus (a thick, slippery fluid).	Mucosa
C12226	C74456		Anatomical Location	MUCOSA OF THE LIP		The lining of the fleshy folds surrounding the mouth. It is comprised of the epithelium, basement membrane, lamina propria mucosae, and lamina muscularis mucosae. (NCI)	Mucosa of the Lip
C13056	C74456		Anatomical Location	MUSCLE		A fibrous soft tissue with the ability to contract to produce force and motion.	Muscle
C12314	C74456		Anatomical Location	MYOMETRIUM	Myometrium	The smooth muscle lining the uterus. (NCI)	Myometrium
C33156	C74456		Anatomical Location	NAIL	Nail	The cutaneous plate on the dorsal surface of the distal end of a finger or toe. (NCI)	Nail
C33157	C74456		Anatomical Location	NASAL BONE	Nasal Bone	One of two small oblong bones placed side by side at the middle and upper part of the face. (NCI)	Nasal Bone
C12424	C74456		Anatomical Location	NASAL CAVITY	Nasal Cavity	The proximal portion of the respiratory passages on either side of the nasal septum lying between the floor of the cranium and the roof of the mouth and extending from the face to the pharynx. The nasal cavity is lined with ciliated mucosa, extending from the nares to the pharynx. (NCI)	Nasal Cavity
C33160	C74456		Anatomical Location	NASAL SEPTUM	Nasal Septum	The thin wall between the two nasal cavities. (NCI)	Nasal Septum
C12423	C74456		Anatomical Location	NASOPHARYNX	Nasopharynx	The part of the pharynx in the back of the throat, at and above the soft palate. The nasopharynx is continuous with the nasal passages. (NCI)	Nasopharynx
C33162	C74456		Anatomical Location	NAVICULAR BONE	Navicular Bone	An oval-shaped bone of the tarsus found on the medial side of the foot. (NCI)	Navicular Bone
C13063	C74456		Anatomical Location	NECK	Neck	The region that connects the head to the rest of the body. (NCI)	Neck
C12466	C74456		Anatomical Location	NERVE		A bundle of fibers that transmits electrochemical impulses encoding sensory and motor information from one body part to another.	Nerve
C12299	C74456		Anatomical Location	NIPPLE	Nipple	The pigmented protuberance on the surface of the breast through which milk is drawn from the breast. (NCI)	Nipple
C12756	C74456		Anatomical Location	NOSE	Nose	A structure of special sense serving as an organ of the sense of smell and as an entrance to the respiratory tract. (NCI)	Nose
C33178	C74456		Anatomical Location	NOSTRIL	Nostril	One of the two channels of the nose, from the point where they divide to the external opening. (NCI)	Nostril
C97342	C74456		Anatomical Location	NUCLEUS OF DIAGONAL BAND	BASAL NUCLEUS/DIAGONAL BAND	A brain structure that is part of the septal nuclear complex. It is connected with the hippocampus, hypothalamus and amygdala.	Nucleus of Diagonal Band
C12355	C74456		Anatomical Location	OCCIPITAL LOBE		The posterior part of the cerebral hemisphere. (MeSH)	Occipital Lobe
C98188	C74456		Anatomical Location	OCCIPITAL LYMPH NODE		A lymph node located in the back of the head adjacent to the trapezius muscle.	Occipital Lymph Node
C103456	C74456		Anatomical Location	OCCIPITAL SCALP		The occipital region of the skin that covers the top of the head. (NCI)	Occipital Scalp
C12758	C74456		Anatomical Location	OCULOMOTOR NERVE		The third cranial nerve.	Oculomotor Nerve
C33794	C74456		Anatomical Location	ODONTOGENIC TISSUE	Teeth	The tissue that forms the tooth. It consists of the dental pulp, dentin, enamel, cementum, odontogenic epithelium, and periodontium. (NCI)	Odontogenic Tissue
C33200	C74456		Anatomical Location	OLECRANON	Olecranon	A prominence at the proximal end of the ulna. It forms the tip of the elbow. (NCI)	Olecranon
C28401	C74456		Anatomical Location	OLFACTORY BULB	Olfactory Bulb	Anatomical structure located in the vertebral forebrain that receives neural input regarding odors that have been detected by cells within the nasal cavity. The axons of olfactory receptor cells extend into the olfactory bulb. (NCI)	Olfactory Bulb
C33205	C74456		Anatomical Location	OLFACTORY MUCOSA	Olfactory Mucosa	The part of the nasal mucosa composed of neuroepithelial tissue and mucus-producing Bowman's glands. The mucus moistens the epithelium and helps dissolve odor-containing gases. (NCI)	Olfactory Mucosa
C12759	C74456		Anatomical Location	OLFACTORY NERVE		The first cranial nerve.	Olfactory Nerve
C33209	C74456		Anatomical Location	OMENTUM	Omental Fat	A fold of peritoneum originating at the stomach and supporting the viscera. (NCI)	Omentum
C33216	C74456		Anatomical Location	OPHTHALMIC ARTERY		An artery arising from the internal carotid artery that branches into two groups of vessels; the orbital group that supplies the orbit and surrounding parts and the ocular group that supplies the globe and muscles of the eye.	Ophthalmic Artery
C12760	C74456		Anatomical Location	OPTIC DISC	Optic Nerve Head; Optic Papilla; Second Cranial Nerve	A portion of the retina at which the axons of the ganglion cells exit the eyeball to form the optic nerve. No light-sensitive photoreceptors are contained within this portion of the retina. (NCI)	Optic Disc
C12761	C74456		Anatomical Location	OPTIC NERVE	Optic Nerve	The second cranial nerve. (NCI)	Optic Nerve
C12421	C74456		Anatomical Location	ORAL CAVITY	Mouth; Oral Cavity	The cavity located at the upper end of the alimentary canal, behind the teeth and gums that is bounded on the outside by the lips, above by the hard and soft palates and below by the tongue. (NCI)	Oral Cavity
C77637	C74456		Anatomical Location	ORAL MUCOSA		Moist tissue lining the oral cavity, containing mucus secreting glands.	Oral Mucosa
C12347	C74456		Anatomical Location	ORBIT	Eye Socket; Ocular Orbit; Orbit; Orbital Cavity	The bony cavity of the skull which contains the eye, anterior portion of the optic nerve, ocular muscles and ocular adnexa. Seven bones contribute to the structure of the orbit: the frontal, maxillary, zygomatic, sphenoid, lacrimal, ethmoid, and palatine bones. (NCI)	Orbit
C12762	C74456		Anatomical Location	OROPHARYNX		The part of the pharynx between the soft palate and the upper portion of the epiglottis. (NCI)	Oropharynx
C12404	C74456		Anatomical Location	OVARY	Ovary	One of the paired female reproductive glands containing the ova or germ cells; the ovary's stroma is a vascular connective tissue containing numbers of ovarian follicles enclosing the ova. (NCI)	Ovary
C52745	C74456		Anatomical Location	PALATINE BONE	Palatine Bone	An irregularly shaped bone positioned at the back part of the nasal cavity between the maxilla and the pterygoid process of the sphenoid. It forms the posterior part of the hard palate and the lateral wall of the nasal fossa and helps to form the floor of the orbit as well as several adjoining parts. (NCI)	Palatine Bone
C33252	C74456		Anatomical Location	PALM		The undersurface of the hand. (NCI)	Palmar Region
C12393	C74456		Anatomical Location	PANCREAS		An organ located adjacent to the stomach that contains both exocrine and endocrine tissue.	Pancreas
C12270	C74456		Anatomical Location	PANCREAS, BODY	Body of the Pancreas	The part of the pancreas from the point where it crosses the portal vein to the point where it enters the lienorenal ligament. (NCI)	Body of the Pancreas
C12608	C74456		Anatomical Location	PANCREAS, ENDOCRINE	Endocrine Pancreas	The pancreatic tissue that contains the islets of Langerhans. It is responsible for the production and secretions of the pancreatic hormones. (NCI)	Islet of Langerhans
C32546	C74456		Anatomical Location	PANCREAS, EXOCRINE	Exocrine Pancreas	An enzyme producing region of the pancreatic tissue containing the pancreatic acini and exocrine intralobular ducts which collectively secrete the digestive enzymes into the main pancreatic duct to drain into the duodenal part of the small intestine. (NCI)	Exocrine Pancreas
C12269	C74456		Anatomical Location	PANCREAS, HEAD	Head of the Pancreas	That portion of the pancreas lying in the concavity of the duodenum. (NCI)	Head of the Pancreas
C12271	C74456		Anatomical Location	PANCREAS, TAIL	Tail of the Pancreas	The left extremity of the pancreas within the lienorenal ligament. (NCI)	Tail of the Pancreas
C77643	C74456		Anatomical Location	PARA-AORTIC LYMPH NODE	Lymph Node, Para-Aortic	A lymph node located adjacent to the lumbar region of the spine. (NCI)	Paraaortic Lymph Node
C117869	C74456		Anatomical Location	PARACAVAL LYMPH NODE		A lymph node located adjacent to the lumbar region of the spine, along the right lateral aspect of the inferior vena cava. (NCI)	Paracaval Lymph Node
C12320	C74456		Anatomical Location	PARAMETRIUM	Parametrium	The subserous connective tissue of the pelvic floor of the supracervical portion of the uterus. The parametrium extends laterally between the layers of the broad ligament. (NCI)	Parametrium
C12763	C74456		Anatomical Location	PARANASAL SINUS	Accessory Sinuses; Nasal Cavity; Nasal Sinuses; Paranasal Sinus	An air-filled cavity adjacent to the nasal cavity lined by a mucous membrane and located in the bones of the skull. There are four paranasal sinuses on each side of the face: ethmoid, frontal, maxillary, and sphenoid sinus. (NCI)	Paranasal Sinus
C52557	C74456		Anatomical Location	PARASYMPATHETIC GANGLIA		A usually small autonomic ganglion of the parasympathetic nervous system. The majority are located near or in the organs that they innervate. (NCI)	Parasympathetic Ganglion
C12765	C74456		Anatomical Location	PARATHYROID GLAND		One of two small paired endocrine glands, superior and inferior, usually found embedded in the connective tissue capsule on the posterior surface of the thyroid gland; these glands secrete parathyroid hormone that regulates the metabolism of calcium and phosphorus. The parenchyma is composed of chief and oxyphilic cells arranged in anastomosing cords. (NCI)	Parathyroid Gland
C103426	C74456		Anatomical Location	PARATRACHEAL LYMPH NODE		A lymph node located adjacent to the trachea within the mediastinum. (NCI)	Paratracheal Lymph Node
C97925	C74456		Anatomical Location	PARAVERTEBRAL GANGLIA		A cluster of neuronal cell bodies and their dendrites located just ventral and lateral to the spinal cord that give rise to the sympathetic nervous system.	Para-Spinal Ganglion
C12354	C74456		Anatomical Location	PARIETAL LOBE	Parietal Lobe	One of the lobes of the cerebral hemisphere located superiorly to the occipital lobe and posteriorly to the frontal lobe. Cognition and visuospatial processing are its main function. (NCI)	Parietal Lobe
C12427	C74456		Anatomical Location	PAROTID GLAND	Parotid Gland	The largest of the three paired salivary glands, located in front of the ear. (NCI)	Parotid Gland
C33278	C74456		Anatomical Location	PAROTID GLAND LYMPH NODE	Parotid Gland Lymph Node	A lymph node located close to, on, or within the parotid gland. (NCI)	Parotid Gland Lymph Node
C97341	C74456		Anatomical Location	PARS COMPACTA		A part of the substantia nigra. The pars compacta nerve cells contain melanin and are involved in motor control. (NCI)	Pars Compacta
C33282	C74456		Anatomical Location	PATELLA	Patella	A small flat triangular bone in front of the knee that articulates with the femur and protects the knee joint. (NCI)	Patella
C33287	C74456		Anatomical Location	PELVIC BONE	Pelvic Bone; Pelvis Bone	The caudal portion of the trunk, bounded anteriorly and laterally by the two hip bones incorporating the socket portion of the hip joint for each leg. Posteriorly it is bounded by the sacrum and coccyx. (NCI)	Pelvic Bone
C12363	C74456		Anatomical Location	PELVIC LYMPH NODE	Pelvic Lymph Node	Any lymph node within the pelvic region. (NCI)	Pelvic Lymph Node
C12767	C74456		Anatomical Location	PELVIS	Pelvic Cavity; Pelvic Region; Pelvis	The bony, basin-shaped structure formed by the hipbones and the base of the backbone supporting the lower limbs in humans. (NCI)	Pelvis
C12409	C74456		Anatomical Location	PENIS	Penis	The male organ of urination and copulation. (NCI)	Penis
C99148	C74456		Anatomical Location	PERIANAL REGION		The skin area around the anus. (NCI)	Perianal Region
C38662	C74456		Anatomical Location	PERICARDIAL CAVITY	Pericardial Cavity	The potential body space formed between the parietal and visceral layers of the pericardial sac. (NCI)	Pericardial Cavity
C117870	C74456		Anatomical Location	PERICARDIAL LYMPH NODE		A lymph node located anterior to the pericardium, posterior to the xiphoid process, and in the right and left cardiophrenic fat. (NCI)	Pericardial Lymph Node
C13005	C74456		Anatomical Location	PERICARDIUM	Pericardium	A conical membranous sac filled with serous fluid in which the heart as well as the roots of the aorta and other large blood vessels are contained. (NCI)	Pericardium
C102330	C74456		Anatomical Location	PERIHILAR LYMPH NODE		A lymph node located in the area around the hilum.	Perihilar Lymph Node
C33301	C74456		Anatomical Location	PERINEUM	Perineum	The area located between the anus and vulva in females, and anus and scrotum in males. (NCI)	Perineum
C77642	C74456		Anatomical Location	PERIPANCREATIC LYMPH NODE		A lymph node of the pancreas. (NCI)	Pancreatic Lymph Node
C12768	C74456		Anatomical Location	PERIPHERAL NERVE	Peripheral Nerve	Any nerve outside the brain or spinal cord that connects with peripheral receptors or effectors. (NCI)	Peripheral Nerve
C12769	C74456		Anatomical Location	PERITONEAL CAVITY	Peritoneal Cavity	The lower part of the abdomen that contains the intestines (the last part of the digestive tract), the stomach, and the liver. It is bound by thin membranes. (NCI)	Peritoneal Cavity
C12770	C74456		Anatomical Location	PERITONEUM	Peritoneum	The tissue that lines the wall of the abdominal cavity, intestine, and mesentery. It consists of the parietal peritoneum that covers the inside of the abdominal wall and the visceral peritoneum that covers the surface of the intestine and mesentery. (NCI)	Peritoneum
C111287	C74456		Anatomical Location	PERIURETHRAL REGION		The tissue surrounding the urethra.	Periurethral Region
C33314	C74456		Anatomical Location	PERONEAL ARTERY		An artery arising from the posterior tibial artery that supplies the muscles on the lateral side of the lower leg.	Peroneal Artery
C33318	C74456		Anatomical Location	PHARYNGEAL TONSIL	Adenoid; Pharyngeal Tonsil	A fold of lymphatic tissue covered by ciliated epithelium at the very back of the nose, in the roof of the nasopharynx. (NCI)	Pharyngeal Tonsil
C12425	C74456		Anatomical Location	PHARYNX	Pharynx	A hollow tube that starts posterior to the mouth and nasal cavity and ends superior to the trachea and esophagus. (NCI)	Pharynx
C12398	C74456		Anatomical Location	PINEAL GLAND		A small endocrine gland within the diencephalon of the brain, situated beneath the back part of the corpus callosum, that secretes melatonin.	Pineal Gland
C12855	C74456		Anatomical Location	PISIFORM BONE	Pisiform Bone	The medial bone of the proximal row of carpal bones. (NCI)	Pisiform Bone
C12399	C74456		Anatomical Location	PITUITARY GLAND	Hypophysis; Hypophysis Cerebri	Pea-sized endocrine gland located at the base of the brain in the pituitary fossa. It produces and secretes hormones such as oxytocin and vasopressin, to regulate the activities of the hypothalamus. (NCI)	Pituitary Gland
C12469	C74456		Anatomical Location	PLEURA	Pleural Tissue	The tissue that lines the wall of the thoracic cavity and the surface of the lungs. (NCI)	Pleura
C12840	C74456		Anatomical Location	PLEURAL CAVITY	Pleural Cavity	The cavity lined by the pleura, located in the thorax and contains heart and lungs. (NCI)	Pleural Cavity
C12511	C74456		Anatomical Location	PONS VAROLII	Pons Varolii	The middle portion of the brainstem located between the midbrain and the medulla oblongata.	Pons Varolii
C116180	C74456		Anatomical Location	POPLITEAL ARTERY ABOVE KNEE		The segment of the popliteal artery that is located above the knee.	Popliteal Artery Above the Knee
C116181	C74456		Anatomical Location	POPLITEAL ARTERY BELOW KNEE		The segment of the popliteal artery that is located below the knee.	Popliteal Artery Below the Knee
C53146	C74456		Anatomical Location	POPLITEAL LYMPH NODE		Lymph node located within the fat layer of the knee joint. (NCI)	Popliteal Lymph Node
C117871	C74456		Anatomical Location	PORTA HEPATIS LYMPH NODE		A lymph node located in the transverse fissure of the liver. (NCI)	Porta Hepatis Lymph Node
C117872	C74456		Anatomical Location	PORTACAVAL LYMPH NODE	Portocaval Lymph Node	A lymph node located in the space between the portal vein and inferior vena cava, along the hepatoduodenal ligament. (NCI)	Portacaval Lymph Node
C77645	C74456		Anatomical Location	PORTAL LYMPH NODE	Periportal Lymph Node	Lymph nodes surrounding the portal vein. (NCI)	Portal Lymph Node
C33343	C74456		Anatomical Location	PORTAL VEIN	Hepatic Portal Vein; Portal Vein	A short thick trunk vein that transports blood containing the absorbed products of digestion from the intestine directly to the liver. (NCI)	Portal Vein
C103428	C74456		Anatomical Location	POSTERIOR CERVICAL LYMPH NODE		A lymph node located in the posterior region of the neck. (NCI)	Posterior Cervical Lymph Node
C102348	C74456		Anatomical Location	POSTERIOR DESCENDING SEPTAL PERFORATORS ARTERY	PDSP; POSTERIOR DESCENDING SEPTAL PERFORATORS ARTERY SEGMENT	The arteries arising from the right posterior descending artery that supply the interventricular septum.	Septal Perforator Artery
C12826	C74456		Anatomical Location	POSTERIOR TIBIAL ARTERY		A terminal branch of the popliteal artery that runs along the tibia from the lower portion of the popliteus muscle to the lower ankle with numerous branches supplying the lower leg and foot.	Posterior Tibial Artery
C116170	C74456		Anatomical Location	POSTEROLATERAL SEGMENTAL ARTERY		In an individual with a right-dominant heart, the arterial branch that arises from the distal right coronary artery in the posterior atrioventricular groove after the origin of the right posterior descending artery.	Posterolateral Coronary Artery
C103429	C74456		Anatomical Location	PREAURICULAR LYMPH NODE		A lymph node located anterior to the auricle of the ear. (NCI)	Preauricular Lymph Node
C112399	C74456		Anatomical Location	PRECUNEUS		The posteromedial region of the parietal lobe bounded by the marginal branch of the cingulate sulcus anteriorly, by the medial portion of the parieto-occipital fissure posteriorly and by the subparietal sulcus inferiorly.	Precuneus
C79432	C74456		Anatomical Location	PREPUTIAL GLAND		Exocrine glands located at the anterior aspect of the genitals of some mammals, such as mice and rats, that produce and secrete pheromones. (NCI)	Preputial Gland
C97340	C74456		Anatomical Location	PRIMARY VISUAL CORTEX		A brain region in the occipital cortex that receives visual stimuli from the retina. (NCI)	Primary Visual Cortex
C32436	C74456		Anatomical Location	PROFUNDA FEMORIS ARTERY		An artery arising from the common femoral artery just below the inguinal ligament running close to the femur and ending in the lower third of the thigh with branches supplying the thigh muscles.	Deep Femoral Artery
C12410	C74456		Anatomical Location	PROSTATE GLAND	Prostate Gland	The walnut shaped accessory sex gland of the male reproductive system. It is located in the pelvis just below the bladder, surrounding the prostatic part of the urethra. The prostate gland secretes a fluid which is part of the semen. (NCI)	Prostate Gland
C13092	C74456		Anatomical Location	PROSTATE GLAND, LATERAL LOBE	Lateral Lobe of the Prostate	The prostate gland lobe that is located on the lateral side of the organ. (NCI)	Lateral Lobe of the Prostate
C13094	C74456		Anatomical Location	PROSTATE GLAND, MIDDLE LOBE	Middle Lobe of the Prostate	The upper, smaller part of the prostate between the ejaculatory ducts and the urethra. (NCI)	Middle Lobe of the Prostate
C13093	C74456		Anatomical Location	PROSTATE GLAND, POSTERIOR LOBE	Posterior Lobe of the Prostate	The prostate gland lobe that is located on the posterior side of the organ. (NCI)	Posterior Lobe of the Prostate
C102331	C74456		Anatomical Location	PROXIMAL CIRCUMFLEX ARTERY	PCIRC; PROXIMAL CIRCUMFLEX ARTERY SEGMENT	The section of the left circumflex coronary artery that arises from the left main coronary artery and extends to the first marginal branch.	Proximal Circumflex Artery
C102332	C74456		Anatomical Location	PROXIMAL INTERPHALANGEAL JOINT 2	PIP2	A condyloid synovial joint within the second digit of the hand or foot connecting the proximal and middle phalanges. (NCI)	Proximal Interphalangeal Joint 2
C114205	C74456		Anatomical Location	PROXIMAL INTERPHALANGEAL JOINT 2 OF THE FOOT	PIP2 of the Foot	A ginglymoid (hinge) synovial joint within the second digit of the foot connecting the proximal and middle phalanges. (NCI)	Proximal Interphalangeal Joint 2 of the Foot
C114194	C74456		Anatomical Location	PROXIMAL INTERPHALANGEAL JOINT 2 OF THE HAND	PIP2 of the Hand	A ginglymoid (hinge) synovial joint within the second digit of the hand connecting the proximal and middle phalanges. (NCI)	Proximal Interphalangeal Joint 2 of the Hand
C102333	C74456		Anatomical Location	PROXIMAL INTERPHALANGEAL JOINT 3	PIP3	A condyloid synovial joint within the third digit of the hand or foot connecting the proximal and middle phalanges. (NCI)	Proximal Interphalangeal Joint 3
C114206	C74456		Anatomical Location	PROXIMAL INTERPHALANGEAL JOINT 3 OF THE FOOT	PIP3 of the Foot	A ginglymoid (hinge) synovial joint within the third digit of the foot connecting the proximal and middle phalanges. (NCI)	Proximal Interphalangeal Joint 3 of the Foot
C114195	C74456		Anatomical Location	PROXIMAL INTERPHALANGEAL JOINT 3 OF THE HAND	PIP3 of the Hand	A ginglymoid (hinge) synovial joint within the third digit of the hand connecting the proximal and middle phalanges. (NCI)	Proximal Interphalangeal Joint 3 of the Hand
C102334	C74456		Anatomical Location	PROXIMAL INTERPHALANGEAL JOINT 4	PIP4	A condyloid synovial joint within the fourth digit of the hand or foot connecting the proximal and middle phalanges. (NCI)	Proximal Interphalangeal Joint 4
C114207	C74456		Anatomical Location	PROXIMAL INTERPHALANGEAL JOINT 4 OF THE FOOT	PIP4 of the Foot	A ginglymoid (hinge) synovial joint within the fourth digit of the foot connecting the proximal and middle phalanges. (NCI)	Proximal Interphalangeal Joint 4 of the Foot
C114196	C74456		Anatomical Location	PROXIMAL INTERPHALANGEAL JOINT 4 OF THE HAND	PIP4 of the Hand	A ginglymoid (hinge) synovial joint within the fourth digit of the hand connecting the proximal and middle phalanges. (NCI)	Proximal Interphalangeal Joint 4 of the Hand
C102335	C74456		Anatomical Location	PROXIMAL INTERPHALANGEAL JOINT 5	PIP5	A condyloid synovial joint within the fifth digit of the hand or foot connecting the proximal and middle phalanges. (NCI)	Proximal Interphalangeal Joint 5
C114208	C74456		Anatomical Location	PROXIMAL INTERPHALANGEAL JOINT 5 OF THE FOOT	PIP5 of the Foot	A ginglymoid (hinge) synovial joint within the fifth digit of the foot connecting the proximal and middle phalanges. (NCI)	Proximal Interphalangeal Joint 5 of the Foot
C114197	C74456		Anatomical Location	PROXIMAL INTERPHALANGEAL JOINT 5 OF THE HAND	PIP5 of the Hand	A ginglymoid (hinge) synovial joint within the fifth digit of the hand connecting the proximal and middle phalanges. (NCI)	Proximal Interphalangeal Joint 5 of the Hand
C102336	C74456		Anatomical Location	PROXIMAL LAD ARTERY	PLAD; PROXIMAL LAD ARTERY SEGMENT	The section of the left anterior descending coronary artery that arises from the left main coronary artery and extends to the first diagonal branch.	Proximal Left Anterior Descending Artery
C102337	C74456		Anatomical Location	PROXIMAL RIGHT CORONARY ARTERY CONDUIT	PRCA; PROXIMAL RIGHT CORONARY ARTERY CONDUIT SEGMENT	The section of the right coronary artery proximal to the origin of the right ventricular artery.	Proximal Right Coronary Artery Conduit
C115335	C74456		Anatomical Location	PROXIMAL URETHRA		The part of the urethra that is close to the bladder.	Proximal Urethra
C33423	C74456		Anatomical Location	PUBIC BONE		Either of the two bones (left and right) that form the front of the pelvis. (NCI)	Pubic Bone
C12775	C74456		Anatomical Location	PULMONARY VALVE		A valve that is located between and controls the flow of blood from the right ventricle of the heart and the pulmonary artery. (NCI)	Pulmonary Valve
C12452	C74456		Anatomical Location	PUTAMEN	Putamen	The largest and most lateral of the basal ganglia lying between the lateral medullary lamina of the globus pallidus and the external capsule. It is part of the neostriatum and forms part of the lentiform nucleus along with the globus pallidus. (MeSH)	Putamen
C33433	C74456		Anatomical Location	PYLORIC SPHINCTER	Pyloric Sphincter	The muscular structure at the distal portion of the stomach, opening into the duodenum. (NCI)	Pyloric Sphincter
C33441	C74456		Anatomical Location	QUADRICEPS MUSCLE	Muscle, Quadriceps; Muscle, Thigh	A group of four powerful muscles in the front of the thigh. Their actions involve the extension of the knee joint. (NCI)	Quadriceps Muscle of the Thigh
C12838	C74456		Anatomical Location	RADIAL ARTERY	Radial Artery	The branch of the brachial artery that passes down the forearm. (NCI)	Radial Artery
C12777	C74456		Anatomical Location	RADIUS	Radius; Radius Bone	The long bone that extends from the lateral aspect of the elbow to the medial side of the carpus.	Radius Bone
C120674	C74456		Anatomical Location	RADIUS SHAFT		The slightly curved, prismoid, elongated bony body of the radius.	Radius Shaft
C102338	C74456		Anatomical Location	RAMUS INTERMEDIUS ARTERY	RAMUS; RAMUS ARTERY; RAMUS INTERMEDIUS ARTERY SEGMENT	An artery that arises from the left main coronary artery and is positioned between the left anterior descending coronary artery and the circumflex artery.	Ramus Intermedius Artery
C97335	C74456		Anatomical Location	RAPHE		A group of nuclei that are located in the midline of the brainstem and release serotonin. (NCI)	Raphe Nuclei
C54188	C74456		Anatomical Location	RECTOSIGMOID JUNCTION		The area where the sigmoid colon joins the rectum.	Rectosigmoid Region
C12390	C74456		Anatomical Location	RECTUM		The terminal portion of the gastrointestinal tract, extending from the rectosigmoid junction to the anal canal. (NCI)	Rectum
C53175	C74456		Anatomical Location	RECTUS FEMORIS MUSCLE		One of the four quadriceps muscles, located in the middle of the front of the thigh. Its actions involve the extension of the knee joint and flexion of the hip. (NCI)	Rectus Femoris
C49018	C74456		Anatomical Location	REGIONAL LYMPH NODE	Regional Lymph Node	A lymph node that drains lymph from a region of interest. (NCI)	Regional Lymph Node
C12778	C74456		Anatomical Location	RENAL ARTERY		Either of two arteries (right or left) that arise from the aorta to supply the kidneys.	Renal Artery
C12887	C74456		Anatomical Location	RENAL PELVIS		The funnel-shaped proximal portion of the ureter located within the kidney into which urine is secreted, from the collecting duct system of the kidney. (NCI)	Renal Pelvis
C12779	C74456		Anatomical Location	RESPIRATORY SYSTEM		The organs and anatomic structures involved in inspiration and expiration of air and the exchange of carbon dioxide and oxygen.	Respiratory System
C12343	C74456		Anatomical Location	RETINA	Retina	A light-sensitive membrane that lines the back wall of the eyeball. The retina is continuous with the optic nerve and this way transmits optical images to the brain. (NCI)	Retina
C52997	C74456		Anatomical Location	RETINAL ARTERY		An artery arising from the ophthalmic artery that supplies the retina.	Retinal Artery
C32953	C74456		Anatomical Location	RETINAL NERVE FIBER LAYER		A retina layer that contains the axons of ganglion cells. It collects the visual impulses. (NCI)	Layer of the Ophthalmic Nerve Fibers
C103439	C74456		Anatomical Location	RETROCRURAL LYMPH NODE		A lymph node located within the most inferior portion of the posterior mediastinum. (NCI)	Retrocrural Lymph Node
C98189	C74456		Anatomical Location	RETROPERITONEAL LYMPH NODE		A lymph node located in the retroperitoneal space. (NCI)	Retroperitoneal Lymph Node
C12298	C74456		Anatomical Location	RETROPERITONEUM	RETROPERITONEAL CAVITY	The back of the abdomen where the kidneys lie and the great blood vessels run. (NCI)	Retroperitoneum
C12782	C74456		Anatomical Location	RIB		Any one of the paired bones, extending from the thoracic vertebrae toward the median line on the ventral aspect of the trunk.	Rib
C52770	C74456		Anatomical Location	RIB 1	Rib 1	The first rib counting from the top of the rib cage down. (NCI)	Rib 1
C52769	C74456		Anatomical Location	RIB 10	Rib 10	The tenth rib counting from the top of the rib cage down. (NCI)	Rib 10
C52768	C74456		Anatomical Location	RIB 11	Rib 11	The eleventh rib counting from the top of the rib cage down. (NCI)	Rib 11
C52767	C74456		Anatomical Location	RIB 12	Rib 12	The twelfth rib counting from the top of the rib cage down. (NCI)	Rib 12
C52766	C74456		Anatomical Location	RIB 2	Rib 2	The second rib counting from the top of the rib cage down. (NCI)	Rib 2
C52765	C74456		Anatomical Location	RIB 3	Rib 3	The third rib counting from the top of the rib cage down. (NCI)	Rib 3
C52764	C74456		Anatomical Location	RIB 4	Rib 4	The fourth rib counting from the top of the rib cage down. (NCI)	Rib 4
C52763	C74456		Anatomical Location	RIB 5	Rib 5	The fifth rib counting from the top of the rib cage down. (NCI)	Rib 5
C52762	C74456		Anatomical Location	RIB 6	Rib 6	The sixth rib counting from the top of the rib cage down. (NCI)	Rib 6
C52761	C74456		Anatomical Location	RIB 7	Rib 7	The seventh rib counting from the top of the rib cage down. (NCI)	Rib 7
C52760	C74456		Anatomical Location	RIB 8	Rib 8	The eighth rib counting from the top of the rib cage down. (NCI)	Rib 8
C52759	C74456		Anatomical Location	RIB 9	Rib 9	The ninth rib counting from the top of the rib cage down. (NCI)	Rib 9
C102339	C74456		Anatomical Location	RIGHT ATRIAL ENDOCARDIUM		The innermost layer of endothelial cells and connective tissue that lines the right atrium.	Right Atrial Endocardium
C116169	C74456		Anatomical Location	RIGHT CORONARY ARTERY OSTIUM		The opening of the right coronary artery at its origin.	Right Coronary Artery Ostium
C102340	C74456		Anatomical Location	RIGHT CORONARY ARTERY, RIGHT POSTERIOR DESCENDING, RIGHT POSTERIOLATERAL AND ACUTE MARGINAL BRANCHES		The right coronary artery and all of its branches.	Right Coronary Artery and its Branches
C102341	C74456		Anatomical Location	RIGHT POSTERIOR ATRIOVENTRICULAR ARTERY	RIGHT POSTERIOR ATRIOVENTRICULAR ARTERY SEGMENT; RPAV	The arterial branch between the right posterior descending artery segment and the first right posterolateral segment.	Right Posterior Atrioventricular Artery
C102342	C74456		Anatomical Location	RIGHT POSTERIOR DESCENDING ARTERY	RIGHT POSTERIOR DESCENDING ARTERY SEGMENT; RPDA	In an individual with a right-dominant heart, the arterial branch that arises from the distal right coronary artery between the acute marginal artery and the first right posterolateral segment. It supplies the inferior apex of the heart.	Right Posterior Descending Artery
C116171	C74456		Anatomical Location	RIGHT VENTRICULAR BRANCH		The branch of the right coronary artery that supplies blood to the right ventricular wall.	Right Ventricular Branch of Right Coronary Artery
C102343	C74456		Anatomical Location	RIGHT VENTRICULAR ENDOCARDIUM		The innermost layer of endothelial cells and connective tissue that lines the right ventricle.	Right Ventricular Endocardium
C105447	C74456		Anatomical Location	SACRAL TUBEROSITY		The prominence on the lateral surface of the sacrum, posterior to the auricular surface of the sacrum. (NCI)	Sacral Tuberosity
C12853	C74456		Anatomical Location	SACRAL VERTEBRA		Any one of the vertebrae situated between the lumbar vertebrae and the caudal vertebrae or coccyx.	Sacral Vertebra
C33507	C74456		Anatomical Location	SACROILIAC JOINT	Sacroiliac Joint	The joint located between the sacrum and the ilium. (NCI)	Sacroiliac Joint
C33508	C74456		Anatomical Location	SACRUM	Sacrum	The triangular bone, made up of 5 fused bones of the spine, located in the lower area of the spine between the fifth lumbar vertebra and the coccyx. (NCI)	Sacrum
C12426	C74456		Anatomical Location	SALIVARY GLAND		An exocrine gland that secretes saliva. Salivary glands are mostly located in and around the oral cavity.	Salivary Gland
C33511	C74456		Anatomical Location	SAPHENOUS VEIN	Saphenous Vein	One of two (Greater, Small) superficial veins of the leg and thigh. (NCI)	Saphenous Vein
C89807	C74456		Anatomical Location	SCALP		The skin which covers the top of the head and which is usually covered by hair. (NCI)	Scalp
C12854	C74456		Anatomical Location	SCAPHOID BONE	Scaphoid Bone	A nut-shaped bone of the wrist located in the radial site of the hand. It is one of the eight carpal bones. (NCI)	Scaphoid Bone
C12783	C74456		Anatomical Location	SCAPULA	Scapula; Shoulder Blade	The flat triangle-shaped bone that connects the humerus with the clavicle in the back of the shoulder. (NCI)	Scapula
C52810	C74456		Anatomical Location	SCIATIC NERVE	Sciatic Nerve	The longest single nerve that is formed by the merging of the ventral rami of the L4, L5, and S1 in the pelvis and passes down the lower limb where it divides into the common peroneal and tibial nerves. (NCI)	Sciatic Nerve
C12784	C74456		Anatomical Location	SCLERA		The white, opaque, fibrous, outer tunic of the eyeball, covering it entirely excepting the segment covered anteriorly by the cornea. It is essentially avascular but contains apertures for vessels, lymphatics, and nerves. It receives the tendons of insertion of the extraocular muscles and at the corneoscleral junction contains the canal of Schlemm. (From Cline et al., Dictionary of Visual Science, 4th ed)	Sclera
C12785	C74456		Anatomical Location	SCROTUM	Scrotum	The musculocutaneous pouch that encloses the testicles. (NCI)	Scrotum
C33519	C74456		Anatomical Location	SEBACEOUS GLAND		Small glands located within the epidermis, and associated with the hair follicle, that produce and secrete an oily substance that lubricates the skin and hair. (NCI)	Sebaceous Gland
C102344	C74456		Anatomical Location	SECOND DIAGONAL BRANCH ARTERY	2ND DIAG; SECOND DIAGONAL BRANCH ARTERY SEGMENT	The second artery arising from the left anterior descending (LAD) artery that supplies the anterolateral wall, when counted from proximal to distal.	Second Diagonal Branch Artery
C102345	C74456		Anatomical Location	SECOND LEFT POSTEROLATERAL BRANCH ARTERY	2ND LPL; SECOND LEFT POSTEROLATERAL BRANCH ARTERY SEGMENT	In an individual with a left-dominant heart, this is the second branch that arises from the circumflex artery atrioventricular groove continuation when counted from proximal to distal. It supplies the posterolateral wall.	Second Left Posterolateral Branch Artery
C102346	C74456		Anatomical Location	SECOND OBTUSE MARGINAL BRANCH ARTERY	2ND OM; SECOND OBTUSE MARGINAL BRANCH ARTERY SEGMENT	The second artery arising from the left circumflex artery that supplies the lateral wall, when counted from proximal to distal.	Second Obtuse Marginal Branch Artery
C102347	C74456		Anatomical Location	SECOND RIGHT POSTEROLATERAL ARTERY	2ND RPL; SECOND RIGHT POSTEROLATERAL ARTERY SEGMENT	In an individual with a right-dominant heart, this is the second branch that arises from the right coronary artery distal to the right posterior descending artery, when counted from proximal to distal.	Second Right Posterolateral Artery
C12787	C74456		Anatomical Location	SEMINAL VESICLE	Seminal Sacs	One of the two paired glands in the male genitourinary system, posterior to the bladder and superior to the prostate gland, that produces fructose-rich seminal fluid which is a component of semen. These glands join the ipsilateral ductus deferens to form the ejaculatory duct. (NCI)	Seminal Vesicle
C53176	C74456		Anatomical Location	SEMITENDINOSUS MUSCLE		A muscle located at the posterior and medial aspect of the thigh that extends the hip joint, flexes the knee joint and assists in medially rotating the knee.	Semitendinosus
C25203	C74456		Anatomical Location	SHOULDER	Shoulder	The region of the body between the neck and the upper arm. (NCI)	Shoulder
C33548	C74456		Anatomical Location	SHOULDER JOINT	Shoulder Joint	A ball-and-socket joint at the upper end of the humerus, located at the junction of humerus and scapula. (NCI)	Shoulder Joint
C33556	C74456		Anatomical Location	SINUS	Sinus	A recess, cavity, or channel. (NCI)	Sinus
C12470	C74456		Anatomical Location	SKIN	Integument; Skin	An organ that constitutes the external surface of the body. It consists of the epidermis, dermis, and skin appendages. (NCI)	Skin
C116164	C74456		Anatomical Location	SKIN OF THE AXILLA		The skin or integument surrounding the axilla, or underarm.	Skin Of The Axilla
C52757	C74456		Anatomical Location	SKIN OF THE HEAD		The skin or integument surrounding the head.	Head Skin
C12291	C74456		Anatomical Location	SKIN OF THE LIP		The skin portion of the lip that contains hair.	Skin of the Lip
C52756	C74456		Anatomical Location	SKIN OF THE NECK		The skin or integument surrounding the neck.	Neck Skin
C12295	C74456		Anatomical Location	SKIN OF THE TRUNK	Skin of the Trunk	The skin or integument surrounding the trunk of the body. (NCI)	Skin of the Trunk
C12789	C74456		Anatomical Location	SKULL	Cranium	The bones that form the head, made up of the bones of the braincase and face. (NCI)	Skull
C12386	C74456		Anatomical Location	SMALL INTESTINE		The section of the intestines between the pylorus and cecum. The small intestine consists of the duodenum, the jejunum, and the ileum.	Small Intestine
C12231	C74456		Anatomical Location	SOFT PALATE		A movable fold suspended from the posterior border of the hard palate. (MeSH)	Soft Palate
C33326	C74456		Anatomical Location	SOLE		The undersurface of the foot. (NCI)	Plantar Region
C32041	C74456		Anatomical Location	SPINAL ACCESSORY NERVE	ACCESSORY NERVE; CRANIAL ACCESSORY NERVE	The eleventh cranial nerve.	Accessory Nerve
C12464	C74456		Anatomical Location	SPINAL CORD	Medulla Spinalis	The elongated, approximately cylindrical part of the central nervous system of vertebrates that lies in the vertebral canal and from which the spinal nerves emerge. (NCI)	Spinal Cord
C116112	C74456		Anatomical Location	SPINOUS PROCESS		A bony projection arising from the posterior vertebral arch that serves for the attachment of muscles and ligaments.	Spinous Process
C12432	C74456		Anatomical Location	SPLEEN		An abdominal organ that is part of the hematopoietic and immune systems. It is composed of the white pulp and the red pulp and is surrounded by a capsule.	Spleen
C33601	C74456		Anatomical Location	SPLEEN, HILUM	Splenic Hilum	The area of the spleen through which the vessels and nerves enter or exit the organ. (NCI)	Splenic Hilum
C33597	C74456		Anatomical Location	SPLENIC ARTERY		An artery arising from the celiac trunk with four main branches that supply the spleen, stomach and pancreas.	Splenic Artery
C33600	C74456		Anatomical Location	SPLENIC HILAR LYMPH NODE		A lymph node located in the hilar region of the spleen. (NCI)	Splenic Hilar Lymph Node
C52730	C74456		Anatomical Location	STERNAL MANUBRIUM	Sternal Manubrium	The upper segment of the sternum, quadrangular in shape, as well as wider superiorly and narrower inferiorly. The sternal manubrium articulates with the clavicle and first two ribs. (NCI)	Sternal Manubrium
C33615	C74456		Anatomical Location	STERNOCLAVICULAR JOINT	Sternoclavicular Joint	The synovial juncture between the medial end of the clavicle and the anterior segment of the sternum. (NCI)	Sternoclavicular Joint
C12793	C74456		Anatomical Location	STERNUM	Sterna; Sternum	The long, flat bone connecting with the cartilages of the first seven ribs and the clavicle. (NCI)	Sternum
C12391	C74456		Anatomical Location	STOMACH	Stomach	An organ located under the diaphragm, between the liver and the spleen as well as between the esophagus and the small intestine. The stomach is the primary organ of food digestion. (NCI)	Stomach
C117873	C74456		Anatomical Location	SUBCARINAL LYMPH NODE		A lymph node located in the thoracic cavity between the lungs. It is bordered by the carina of the trachea, lower lobe bronchus on the left and the bronchus intermedius on the right. (NCI)	Subcarinal Lymph Node
C12794	C74456		Anatomical Location	SUBCLAVIAN VEIN		The vein that drains the axillary vein and joins the internal jugular vein to form the brachiocephalic vein. It runs parallel to the subclavian artery.	Subclavian Vein
C33645	C74456		Anatomical Location	SUBCUTIS	Subcutaneous Adipose Tissue; Subcutaneous Tissue	Adipose tissue located under the dermis. It binds underlying structures with the skin. The subcutis is important in the regulation of temperature of the skin itself and the body. The size of this layer varies throughout the body and from subject to subject.	Subcutis
C12280	C74456		Anatomical Location	SUBGLOTTIS	Subglottis	The area of the larynx below the vocal cords down to the trachea. (NCI)	Subglottis
C102349	C74456		Anatomical Location	SUBLINGUAL REGION		A body region relating to the area under or adjacent to the tongue.	Sublingual Region
C77650	C74456		Anatomical Location	SUBMANDIBULAR LYMPH NODE	Lymph Node, Submandibular	A lymph node located beneath the floor of the oral cavity. (NCI)	Submandibular Lymph Node
C12453	C74456		Anatomical Location	SUBSTANTIA NIGRA	Substantia Nigra	A large cell mass extending forward, over the dorsal surface of the crus cerebri, from the rostral border of the pons into the subthalamic region. It is composed of a dorsal stratum of closely spaced pigmented cells, the pars compacta, and a larger ventral region of widely scattered cells, the pars reticulata. The pars compacta includes numerous cells that project forward to the striatum (caudate nucleus and putamen) and contain dopamine, which acts as the primary neurotransmitter at the synaptic endings. Other, apparently non-dopaminergic cells project to portions of the ventral nucleus of thalamus, the superior colliculus and reticular formation. The nigrostriatal projection is reciprocated by a striatonigral fiber system with multiple neurotransmitters, chief among which is gamma-aminobutyric acid (GABA). The substantia nigra is involved in the metabolic disturbances associated with Parkinson's disease and Huntington's disease. (NCI)	Substantia Nigra
C33653	C74456		Anatomical Location	SUBTALAR JOINT	Talocalcaneal Joint	The plane synovial joint between the talus and calcaneus bones of the foot.	Subtalar Joint
C33712	C74456		Anatomical Location	SUDORIFEROUS GLAND	Sweat Gland	The small coiled tubular glands in the skin that produce and secrete sweat.	Sweat Gland
C33661	C74456		Anatomical Location	SUPERFICIAL FEMORAL ARTERY		The portion of the femoral artery distal to the branching of the deep femoral artery that runs close to the skin.	Superficial Femoral Artery
C102716	C74456		Anatomical Location	SUPERFICIAL LYMPH NODE		A lymph node located in a superficial part of the body.	Superficial Lymph Node
C12816	C74456		Anatomical Location	SUPERIOR VENA CAVA		The large vein that terminates in the right atrium and transports deoxygenated blood from the head, neck, arms, and chest to the heart.	Superior Vena Cava
C12903	C74456		Anatomical Location	SUPRACLAVICULAR LYMPH NODE	Supraclavicular Lymph Node	A lymph node which is located above the clavicle. (NCI)	Supraclavicular Lymph Node
C12512	C74456		Anatomical Location	SUPRATENTORIAL BRAIN		The part of the brain above the tentorium cerebellum. (NCI)	Supratentorial Brain
C12467	C74456		Anatomical Location	SYMPATHETIC GANGLIA		A mass containing the cell bodies of sympathetic nerves. Sympathetic ganglia exist as paravertebral ganglia (located bilaterally adjacent to the spinal cord) or prevertebral ganglia (located close to the target organ).	Sympathetic Ganglion
C33718	C74456		Anatomical Location	SYNOVIAL FLUID	Synovia; Synovial Fluid	A viscid fluid secreted by the synovial membrane, serving as a lubricant. (NCI)	Synovial Fluid
C33720	C74456		Anatomical Location	T1 VERTEBRA	T1 Vertebra	The first thoracic vertebra counting from the top down. (NCI)	T1 Vertebra
C33721	C74456		Anatomical Location	T10 VERTEBRA	T10 Vertebra	The tenth thoracic vertebra counting from the top down. (NCI)	T10 Vertebra
C33722	C74456		Anatomical Location	T11 VERTEBRA	T11 Vertebra	The eleventh thoracic vertebra counting from the top down. (NCI)	T11 Vertebra
C33723	C74456		Anatomical Location	T12 VERTEBRA	T12 Vertebra	The twelfth thoracic vertebra counting from the top down. (NCI)	T12 Vertebra
C33724	C74456		Anatomical Location	T2 VERTEBRA	T2 Vertebra	The second thoracic vertebra counting from the top down. (NCI)	T2 Vertebra
C33725	C74456		Anatomical Location	T3 VERTEBRA	T3 Vertebra	The third thoracic vertebra counting from the top down. (NCI)	T3 Vertebra
C33726	C74456		Anatomical Location	T4 VERTEBRA	T4 Vertebra	The fourth thoracic vertebra counting from the top down. (NCI)	T4 Vertebra
C33727	C74456		Anatomical Location	T5 VERTEBRA	T5 Vertebra	The fifth thoracic vertebra counting from the top down. (NCI)	T5 Vertebra
C33728	C74456		Anatomical Location	T6 VERTEBRA	T6 Vertebra	The sixth thoracic vertebra counting from the top down. (NCI)	T6 Vertebra
C33729	C74456		Anatomical Location	T7 VERTEBRA	T7 Vertebra	The seventh thoracic vertebra counting from the top down. (NCI)	T7 Vertebra
C33730	C74456		Anatomical Location	T8 VERTEBRA	T8 Vertebra	The eighth thoracic vertebra counting from the top down. (NCI)	T8 Vertebra
C33731	C74456		Anatomical Location	T9 VERTEBRA	T9 Vertebra	The ninth thoracic vertebra counting from the top down. (NCI)	T9 Vertebra
C52799	C74456		Anatomical Location	TALUS	Talus	The bone of the foot that connects with the tibia and fibula to form the ankle joint. (NCI)	Talus
C33735	C74456		Anatomical Location	TARSAL JOINT		A joint formed by the union of tarsal bones.	Tarsal Joint
C12796	C74456		Anatomical Location	TARSUS BONE	Bone, Tarsal; Tarsus; Tarsus Bone	Any one of the seven bones forming the instep of the foot. (NCI)	Tarsal Bone
C33741	C74456		Anatomical Location	TEMPORAL ARTERY		A terminal branch of the external carotid artery that branches into the anterior and posterior temporal arteries. (NCI)	Temporal Artery
C12797	C74456		Anatomical Location	TEMPORAL BONE	Temporal Bone	A large irregular bone situated at the base and side of the skull, connected with the mandible via the temporomandibular joint. The temporal bone consists of the squamous, tympanic and petrous parts. The petrous portion of the temporal bone contains the vestibulocochlear organ of the inner ear. (NCI)	Temporal Bone
C12353	C74456		Anatomical Location	TEMPORAL LOBE		Lower lateral part of the cerebral hemisphere. (MSH2001)	Temporal Lobe
C32888	C74456		Anatomical Location	TEMPOROMANDIBULAR JOINT	Jaw Joint; TMJ	The joint between the head of the lower mandible and the temporal bone. (NCI)	Jaw Joint
C33749	C74456		Anatomical Location	TENTORIUM CEREBELLI		A laminar extension of the dura mater that lies between, and separates, the cerebrum and the cerebellum. (NCI)	Tentorium Cerebelli
C12412	C74456		Anatomical Location	TESTIS	Testicle; Testis	Either of the paired male reproductive glands that produce the male germ cells and the male hormones. (NCI)	Testis
C12459	C74456		Anatomical Location	THALAMUS	Thalamus	An ovoid mass composed predominantly of gray substance and associated laminae of white substance. The thalamus is divided into anterior, medial, and lateral parts. The function of the thalamus is to relay sensory impulses and cerebellar and basal ganglia projections to the cerebral cortex. The thalamus is positioned within the posterior part of the diencephalon forming most of each lateral wall of the third ventricle. (NCI)	Thalamus
C33763	C74456		Anatomical Location	THIGH	Thigh	A part of the lower limb, located between hip and knee. (NCI)	Thigh
C102350	C74456		Anatomical Location	THIRD DIAGONAL BRANCH ARTERY	3RD DIAG; THIRD DIAGONAL BRANCH ARTERY SEGMENT	The third artery arising from the left anterior descending (LAD) artery that supplies the anterolateral wall, when counted from proximal to distal.	Third Diagonal Branch Artery
C102351	C74456		Anatomical Location	THIRD OBTUSE MARGINAL BRANCH ARTERY	3RD OM; THIRD OBTUSE MARGINAL BRANCH ARTERY SEGMENT	The third artery arising from the left circumflex artery that supplies the lateral wall, when counted from proximal to distal.	Third Obtuse Marginal Branch Artery
C102352	C74456		Anatomical Location	THIRD POSTEROLATERAL DESCENDING ARTERY	3RD LPL; THIRD POSTEROLATERAL DESCENDING ARTERY SEGMENT	In an individual with a left-dominant heart, this is the third branch that arises from the circumflex artery atrioventricular groove continuation when counted from proximal to distal. It supplies the posterolateral wall.	Third Posterolateral Descending Artery
C102353	C74456		Anatomical Location	THIRD RIGHT POSTEROLATERAL ARTERY	3RD RPL; THIRD RIGHT POSTEROLATERAL ARTERY SEGMENT	In an individual with a right-dominant heart, this is the third branch that arises from the right coronary artery distal to the right posterior descending artery, when counted from proximal to distal.	Third Right Posterolateral Artery
C33766	C74456		Anatomical Location	THORACIC AORTA		The section of the aorta between the lower border of the fourth dorsal vertebrae and the aortic opening in the diaphragm. (NCI)	Thoracic Aorta
C12905	C74456		Anatomical Location	THORACIC CAVITY	Thoracic Cavity	The cavity in the vertebrate body enclosed by the ribs between the diaphragm and the neck and containing the lungs and heart. (NCI)	Thoracic Cavity
C33769	C74456		Anatomical Location	THORACIC LYMPH NODE		Lymph node located in the thoracic cavity. (NCI)	Thoracic Lymph Node
C12798	C74456		Anatomical Location	THORACIC VERTEBRA	Thoracic Vertebra	Any of the vertebrae situated between the cervical and lumbar vertebrae.	Thoracic Vertebra
C12799	C74456		Anatomical Location	THORAX	Thorax	The division of the body lying between the neck and the abdomen. (NCI)	Thorax
C54272	C74456		Anatomical Location	THROAT	Throat	The narrow passage from the mouth to the cavity at the back of the mouth. (NCI)	Throat
C12433	C74456		Anatomical Location	THYMUS GLAND	Thymus Gland	A lymphoid organ located in the thorax near the thoracic inlet and/or neck, essential for the development of the immune system.	Thymus Gland
C12400	C74456		Anatomical Location	THYROID GLAND	Thyroid Gland	An endocrine gland located at the base of the neck that produces and secretes thyroxine and other hormones. Thyroxine is important for metabolic control. (NCI)	Thyroid Gland
C32887	C74456		Anatomical Location	THYROID GLAND ISTHMUS		The narrow, central portion of the thyroid gland that crosses the trachea anteriorly and connects the two lobes of the gland. (NCI)	Thyroid Gland Isthmus
C32973	C74456		Anatomical Location	THYROID GLAND, LEFT LOBE	Left Thyroid Gland Lobe	The cone-like lobe of the thyroid gland that is located in the left side of the trachea. (NCI)	Left Thyroid Gland Lobe
C33491	C74456		Anatomical Location	THYROID GLAND, RIGHT LOBE	Right Thyroid Gland Lobe	The cone-like lobe of the thyroid gland that is located in the right side of the trachea. (NCI)	Right Thyroid Gland Lobe
C12800	C74456		Anatomical Location	TIBIA	Tibia	A bone located between the femur and the tarsus, being part of the lower leg. (NCI)	Tibia
C120675	C74456		Anatomical Location	TIBIA SHAFT		The triangular prismoid, elongated bony body of the tibia.	Tibial Shaft
C116168	C74456		Anatomical Location	TIBIAL-CRURAL PERIPHERAL ARTERY		The blood vessels segment that includes the crural artery and the tibial artery.	Tibialcrural Artery
C117874	C74456		Anatomical Location	TIBIALIS ANTERIOR MUSCLE		A muscle that originates from the lateral condyle of tibia, spans the upper two-thirds of the lateral surface of the tibia, and is attached to the first cuneiform and metatarsal bones of the foot. It is a dorsiflexor of the ankle and invertor of the foot.	Tibialis Anterior Muscle
C116182	C74456		Anatomical Location	TIBIO-PERONEAL TRUNK		An arterial trunk that contains parts of the posterior tibial artery and fibular artery.	Tibioperoneal Arterial Trunk
C33788	C74456		Anatomical Location	TOE	Toe	One of the terminal digits of the foot. (NCI)	Toe
C33790	C74456		Anatomical Location	TOENAIL	Toenail	A thin, horny translucent plate covering the end of each toe. (NCI)	Toenail
C12422	C74456		Anatomical Location	TONGUE	Tongue	The muscular organ located in the floor of the mouth and serving as the principal organ of taste and modification of the voice in speech. (NCI)	Tongue
C12802	C74456		Anatomical Location	TONSIL	Tonsil	The two organs situated in the throat on either side of the narrow passage from the mouth to the pharynx. They are composed of lymphoid tissues. (NCI)	Tonsil
C66864	C74456		Anatomical Location	TOOTH CANAL	Tooth Canal	The anatomic space in the root of a tooth that contains nerves, blood vessels, and connective tissue. (NCI)	Tooth Canal
C12428	C74456		Anatomical Location	TRACHEA	Trachea; Windpipe	The fibrocartilaginous, mucous-lined tube passing from the larynx to the bronchi. (NCI)	Trachea
C117875	C74456		Anatomical Location	TRACHEOBRONCHIAL TREE		An anatomical structure comprised of trachea, bronchi, and bronchioles that terminate with the alveolar ducts, sacs, and alveoli. (NCI)	Tracheobronchial Tree
C102354	C74456		Anatomical Location	TRANSVERSE TARSAL JOINT		A combination of syndesmosis and synovial joints formed by the articulation of the talus with the navicular and the calcaneus with the cuboid.	Transverse Tarsal Joint
C12857	C74456		Anatomical Location	TRAPEZIAL BONE	Trapezial Bone	A carpal bone on the thumb side of the hand that articulates with the 1st and 2nd metacarpals. (NCI)	Trapezial Bone
C33809	C74456		Anatomical Location	TRAPEZIUS MUSCLE	Trapezius Muscle	One of a pair of flat, large, triangular muscles that extend from the external occipital protuberance and the medial third of the superior nuchal line of the occipital bone to the middle of the back. The trapezius muscle is involved in moving the shoulder and arm. (NCI)	Trapezius Muscle
C12859	C74456		Anatomical Location	TRAPEZOID BONE	Trapezoid Bone	A carpal bone located between the trapezium and capitate bones. (NCI)	Trapezoid Bone
C12858	C74456		Anatomical Location	TRIANGULAR BONE	Triangular Bone	A carpal bone located between the lunate and pisiform bones. (NCI)	Triangular Bone
C12805	C74456		Anatomical Location	TRICUSPID VALVE		A three-cusp valve of the heart that regulates the flow of blood between the right atrium and the right ventricle of the heart. (NCI)	Tricuspid Valve
C12806	C74456		Anatomical Location	TRIGEMINAL NERVE	Fifth Cranial Nerve; Nervus Trigeminus; Trigeminal Nerve	The fifth set of paired nerves of the face that emerge from the brain steam. These nerves have sensory and motor functions in the face, oral cavity, and nasal cavity. (NCI)	Trigeminal Nerve
C33814	C74456		Anatomical Location	TROCHANTER	Trochanter	A bony protrusion on the femoral bone to which muscles are attached. (NCI)	Trochanter
C12808	C74456		Anatomical Location	TROCHLEAR NERVE	Trochlear Nerve	The cranial nerve that controls the superior oblique muscle of the eye. (NCI)	Trochlear Nerve
C33816	C74456		Anatomical Location	TRUNK	Torso	The body excluding the head, neck and appendages.	Trunk
C33820	C74456		Anatomical Location	TUNICA INTIMA	Tunica Intima	The inner most layer of the blood vessel wall. The consistency of the intima will vary depending on the type of blood vessel, but will always have an endothelial layer with a basal lamina. It may contain collagen and elastic fibers. (NCI)	Tunica Intima
C12502	C74456		Anatomical Location	TYMPANIC MEMBRANE	Tympanic Membrane	A thin membrane that separates the external auditory canal from the middle ear. The movement of the tympanic membrane in response to air pressure changes in the external ear facilitates the transmission of sound energy by causing vibration of the ossicular chain. (NCI)	Tympanic Membrane
C12809	C74456		Anatomical Location	ULNA	Ulna Bone	The long bone that extends from the elbow to the lateral side of the carpus.	Ulna
C120676	C74456		Anatomical Location	ULNA SHAFT		The prismatic, elongated bony body of the ulna.	Ulnar Shaft
C77533	C74456		Anatomical Location	UMBILICUS	Navel	The depression or scar on the abdomen that marks the former site of attachment of the umbilical cord. (NCI)	Umbilicus
C62432	C74456		Anatomical Location	UNCINATE PROCESS OF PANCREAS	Uncinate Process of Pancreas	A portion of the pancreas that extends behind the superior mesenteric artery and superior mesenteric vein. (NCI)	Uncinate Process of Pancreas
C103447	C74456		Anatomical Location	UPPER CERVICAL LYMPH NODE		A lymph node located in the upper region of the neck. (NCI)	Upper Cervical Lymph Node
C33839	C74456		Anatomical Location	UPPER RESPIRATORY SYSTEM		The sinuses and those parts of the respiratory system above the trachea. It includes the nares, nasopharynx, oropharynx, larynx, vocal cords, glottis and upper trachea.	Upper Respiratory System
C12416	C74456		Anatomical Location	URETER	Ureter	The thick-walled tube that carries urine from each kidney to the bladder. (NCI)	Ureter
C12417	C74456		Anatomical Location	URETHRA	Urethra	The tube carrying urine from the bladder to outside of the body. (NCI)	Urethra
C61125	C74456		Anatomical Location	URETHRA, ANTERIOR	Anterior Portion of the Urethra	The portion of the urethra that extends from the meatus to the membranous urethra. (NCI)	Anterior Portion of the Urethra
C61123	C74456		Anatomical Location	URETHRA, PENILE	Penile Portion of the Urethra	The portion of the urethra that spans the corpus spongiosum. (NCI)	Penile Portion of the Urethra
C61126	C74456		Anatomical Location	URETHRA, POSTERIOR	Posterior Portion of the Urethra	The portion of the urethra that is located on the posterior aspect of the urogenital diaphragm. (NCI)	Posterior Portion of the Urethra
C13101	C74456		Anatomical Location	URETHRA, PROSTATIC	Prostatic Urethra	That part of the male urethra that passes through the prostate gland. (NCI)	Prostatic Urethra
C12413	C74456		Anatomical Location	URINARY SYSTEM	Urinary System	The organs involved in the creation and excretion of urine. (NCI)	Urinary System
C12405	C74456		Anatomical Location	UTERUS	Womb	A hollow muscular organ within which the fertilized egg implants and the embryo/fetus develops during pregnancy.	Uterus
C12811	C74456		Anatomical Location	UVEA	Uvea	The pigmented layer of the eyeball between the tough, white outer coat of the eye and the retina. (NCI)	Uvea
C12407	C74456		Anatomical Location	VAGINA	Vagina	The female genital canal, extending from the uterus to the vulva. (NCI)	Vagina
C12812	C74456		Anatomical Location	VAGUS NERVE		The 10th cranial nerve. The vagus is a mixed nerve which contains somatic afferents (from skin in back of the ear and the external auditory meatus), visceral afferents (from the pharynx, larynx, thorax, and abdomen), parasympathetic efferents (to the thorax and abdomen), and efferents to striated muscle (of the larynx and pharynx). (MSH2001)	Vagus Nerve
C12813	C74456		Anatomical Location	VAS DEFERENS		A duct carrying spermatozoa from the epididymides to the urethra.	Vas Deferens
C117876	C74456		Anatomical Location	VASTUS INTERMEDIUS MUSCLE		The portion of the quadriceps femoris muscle group that is underneath the Rectus Femoris muscle, spans and covers the upper two-thirds of the anterior and lateral surfaces of the femur, and inserts into the lateral border of the patella.	Vastus Intermedius Muscle
C53073	C74456		Anatomical Location	VASTUS LATERALIS MUSCLE		The largest muscle of the quadriceps femoris muscle group that extends laterally from the intertrochanteric line of the femur to the lateral aspects of the quadriceps femoris tendon and patella.	Vastus Lateralis
C117736	C74456		Anatomical Location	VASTUS MEDIALIS MUSCLE		The portion of the quadriceps femoris muscle group that extends medially from the intertrochanteric line of the femur to the medial aspects of the quadriceps femoris tendon and patella. (NCI)	Vastus Medialis Muscle
C12814	C74456		Anatomical Location	VEIN	Vein	A blood vessel that carries blood towards the heart.	Vein
C12817	C74456		Anatomical Location	VENA CAVA	Vena Cava	A large vein which returns blood from the head, neck and extremities to the heart. (NCI)	Vena Cava
C12998	C74456		Anatomical Location	VERTEBRAL COLUMN	Spinal Column; Vertebral Column	A series of bones, muscles, tendons, and other tissues reaching from the base of the skull to the tailbone. The vertebral column forms the axis of the skeleton and encloses as well as protects the spinal cord and the fluid surrounding the spinal cord. (NCI)	Vertebral Column
C12996	C74456		Anatomical Location	VESTIBULOCOCHLEAR NERVE		The eighth cranial nerve.	Vestibulocochlear Nerve
C12822	C74456		Anatomical Location	VOCAL CORD	Vocal Cord	A pair of small bands of muscle that stretch from the thyroid cartilage in front to the arytenoid cartilage in back of the larynx. The vocal cords help prevent food entering the lungs and produce sound through vibration. (NCI)	Vocal Cord
C33888	C74456		Anatomical Location	VOMER	Vomer	A thin, paired or unpaired, trapezoidal bone of the skull located in the floor of the nasal cavity. The vomer forms the posterior and inferior parts of the nasal septum. (NCI)	Vomer
C12408	C74456		Anatomical Location	VULVA	External Genitalia; Vulva	The external, visible part of the female genitalia surrounding the urethral and vaginal opening. The vulva includes the clitoris and inner as well as outer labia. (NCI)	Vulva
C64192	C74456		Anatomical Location	WAIST	Waist	The abdominal circumference at the navel. (NCI)	Waist
C73468	C74456		Anatomical Location	WALDEYER'S TONSILLAR RING		The ring of lymphoid tissue located in the pharynx, consisting of the pharyngeal, tubal, palatine, and lingual tonsils. (NCI)	Waldeyer's Tonsillar Ring
C122161	C74456		Anatomical Location	WARDS TRIANGLE		An area of low density in the femoral neck, as seen by radiography, which is bounded by the principle compressive, secondary compressive and primary tensile trabeculae.	Ward's Triangle
C33894	C74456		Anatomical Location	WRIST JOINT	Wrist Joint	A joint between the distal end of the radius and the proximal row of carpal bones. (NCI)	Wrist Joint
C33895	C74456		Anatomical Location	XIPHOID PROCESS	Xiphoid Process	The cartilage just below the sternal body. (NCI)	Xiphoid Process
C120521		Yes	Anti-Viral Outcome of Treatment	AVOUTTRT	Anti-Viral Outcome of Treatment	A terminology codelist to describe the anti-viral outcome of treatment.	CDISC SDTM Anti-Viral Outcome of Treatment Terminology
C120597	C120521		Anti-Viral Outcome of Treatment	RAPID VIROLOGIC RESPONSE	RVR	A finding of aviremia at a specified timepoint, early during the treatment period.	Rapid Virologic Response
C120598	C120521		Anti-Viral Outcome of Treatment	SUSTAINED VIROLOGIC RESPONSE	SVR	A finding of aviremia at a predetermined time point after the end of planned or actual treatment.	Sustained Virologic Response
C120599	C120521		Anti-Viral Outcome of Treatment	VIRAL BREAKTHROUGH	VBT	The subject becomes viremic during the treatment period after a period of treatment-induced aviremia or has an increase in viral load from nadir above a predetermined threshold during the treatment period.	Viral Breakthrough
C120600	C120521		Anti-Viral Outcome of Treatment	VIRAL RELAPSE		A recurrence of the same virus after a finding of aviremia at the end of planned or actual treatment.	Viral Relapse
C120601	C120521		Anti-Viral Outcome of Treatment	VIROLOGIC END OF TREATMENT RESPONSE		A finding of aviremia at the end of the planned or actual end of treatment period.	Virologic End Of Treatment Response
C120602	C120521		Anti-Viral Outcome of Treatment	VIROLOGIC FAILURE		A finding of viremia at or after end of planned or actual treatment, excluding treatment discontinuations for non-virologic reasons.	Virologic Failure
C120603	C120521		Anti-Viral Outcome of Treatment	VIROLOGIC NON-RESPONSE		The subject remains viremic during the treatment period.	Virologic Non-Response
C120604	C120521		Anti-Viral Outcome of Treatment	VIROLOGIC NULL-RESPONSE		The subject remains viremic during the treatment period and the decrease in viral load from baseline at a specified timepoint is below or equal to a predetermined threshold.	Virologic Null-Response
C120605	C120521		Anti-Viral Outcome of Treatment	VIROLOGIC PARTIAL RESPONSE		The subject remains viremic during the treatment period and the decrease in viral load from baseline at a specified timepoint is above a predetermined threshold.	Virologic Partial Response
C101842		No	Canadian Cardiovascular Society Classification	CACRDSC	Canadian Cardiovascular Society Classification	The anginal classifications as measured by the Canadian Cardiovascular Society grading scale.	CDISC SDTM Canadian Cardiovascular Society Classification Terminology
C77265	C101842		Canadian Cardiovascular Society Classification	CCS CLASS 1	Canadian Cardiovascular Society Classification 1	Ordinary physical activity, such as walking or climbing stairs, does not cause angina. Angina occurs with strenuous, rapid, or prolonged exertion at work or recreation.	Canadian Cardiovascular Society Grading Scale Class I
C77266	C101842		Canadian Cardiovascular Society Classification	CCS CLASS 2	Canadian Cardiovascular Society Classification 2	Slight limitation of ordinary activity. Angina occurs on walking or climbing stairs rapidly, walking uphill, walking or climbing stairs after meals, or in cold, in wind, or under emotional stress, or only during the few hours after awakening. Angina occurs on walking more than 2 blocks on the level and climbing more than 1 flight of ordinary stairs at a normal pace and in normal conditions.	Canadian Cardiovascular Society Grading Scale Class II
C77267	C101842		Canadian Cardiovascular Society Classification	CCS CLASS 3	Canadian Cardiovascular Society Classification 3	Marked limitations of ordinary physical activity. Angina occurs on walking 1 to 2 blocks on the level and climbing 1 flight of stairs in normal conditions and at a normal pace.	Canadian Cardiovascular Society Grading Scale Class III
C77268	C101842		Canadian Cardiovascular Society Classification	CCS CLASS 4	Canadian Cardiovascular Society Classification 4	Inability to perform any physical activity without discomfort - anginal symptoms may be present at rest.	Canadian Cardiovascular Society Grading Scale Class IV
C101859		Yes	Cardiac Procedure Indication	CVPRCIND	Cardiac Procedure Indication	The reason that a subject had a cardiac procedure.	CDISC SDTM Cardiac Procedure Indication Terminology
C99919	C101859		Cardiac Procedure Indication	CANDIDATE TO RECEIVE CARDIAC TRANSPLANT		The intended recipient of a heart transplant.	Candidate to Receive Cardiac Transplant
C100033	C101859		Cardiac Procedure Indication	CARDIAC ARREST/ARRHYTHMIA ETIOLOGY UNKNOWN		An episode of cardiac arrest or arrhythmia where the etiology was unknown.	Cardiac Arrest/Arrhythmia Etiology Unknown
C34830	C101859		Cardiac Procedure Indication	CARDIOMYOPATHY		A disease of the heart muscle or myocardium proper. Cardiomyopathies may be classified as either primary or secondary, on the basis of etiology, or on the pathophysiology of the lesion: hypertrophic, dilated, or restrictive.	Cardiomyopathy
C99938	C101859		Cardiac Procedure Indication	CHRONIC TOTAL OCCLUSION		A longstanding, complete blockage of a vessel.	Chronic Total Occlusion Vessel
C99947	C101859		Cardiac Procedure Indication	DONOR FOR CARDIAC TRANSPLANT		The subject contributing a heart for a cardiac transplant.	Donor for Cardiac Transplant
C99949	C101859		Cardiac Procedure Indication	END OF EXPECTED BATTERY LIFE		The battery that supplies the device has reached the end of its life.	End of Expected Battery Life
C100035	C101859		Cardiac Procedure Indication	FAULTY CONNECTOR/HEADER		There is a faulty connector/header in the device.	Faulty Device Connector/Header
C99925	C101859		Cardiac Procedure Indication	GENERATOR IS BEING REPLACED AT THE TIME OF LEAD REVISION		A cardiac lead requires revision, at which time the generator to the device will be replaced.	Cardiac Device Generator is Being Replaced at Time of Lead Revision
C99943	C101859		Cardiac Procedure Indication	GENERATOR MALFUNCTION		The device has a generator malfunction.	Device Generator Malfunction
C99961	C101859		Cardiac Procedure Indication	IMMEDIATE PERCUTANEOUS CORONARY INTERVENTION (PCI) FOR ST ELEVATION MYOCARDIAL INFARCTION (STEMI)		An immediate percutaneous coronary intervention is necessary for a myocardial infarction that presents with ST segment elevation.	Immediate Percutaneous Coronary Intervention for ST Elevation Myocardial Infarction
C26726	C101859		Cardiac Procedure Indication	INFECTION		A disorder resulting from the presence and activity of a microbial, viral, or parasitic agent. It can be transmitted by direct or indirect contact. (NCI)	Infectious Disorder
C99931	C101859		Cardiac Procedure Indication	LEAD EROSION		A cardiac lead has damaged local tissue enough to require treatment.	Cardiac Lead Erosion
C64251	C101859		Cardiac Procedure Indication	LEFT VENTRICULAR SYSTOLIC DYSFUNCTION		The degree of impairment of the left cardiac ventricle to contract efficiently.	Left Ventricular Systolic Dysfunction
C100045	C101859		Cardiac Procedure Indication	MANUFACTURER RECALL		An imperative issued by the manufacturer of a device that the device needs to be returned to a designated source for repair or replacement.	Manufacturer Recall
C99980	C101859		Cardiac Procedure Indication	MANUFACTURER RECOGNIZED A RECURRING PERFORMANCE FAILURE		The device manufacturer had recognized a recurrent performance failure in the device.	Manufacturer Recognized a Recurring Performance Failure
C99982	C101859		Cardiac Procedure Indication	MEDICAL CONDITION OR PROCEDURE AFFECTS IMPLANTATION SITE		The medical condition or the procedure affects the device implantation site.	Medical Condition or Procedure Affects Implantation Site
C99983	C101859		Cardiac Procedure Indication	MEDICAL OR SURGICAL PROCEDURE REQUIRING RELOCATION OF LEAD		An intended medical or surgical procedure necessitates the relocation of a cardiac lead.	Medical or Surgical Procedure Requiring Relocation of Lead
C99999	C101859		Cardiac Procedure Indication	PERCUTANEOUS CORONARY INTERVENTION (PCI) FOR HIGH RISK NON-ST ELEVATION MYOCARDIAL INFARCTION OR UNSTABLE ANGINA		Includes patients with unstable angina or Non-STEMI who have high risk features for short-term risk of death or nonfatal MI. High risk features includes at least one of the following: history of accelerating tempo of ischemic symptoms in preceding 48 hours; character of pain - prolonged ongoing (greater than 20 minutes) rest pain; clinical findings - pulmonary edema, most likely due to ischemia or new or worsening mitral regurgitation murmur; or S3 or new worsening rales or Hypotension, bradycardia, tachycardia or age greater than 75 years; ECG - angina at rest with transient ST-segment changes greater than 0.5 mm or bundle-branch block, new or presumed new or sustained ventricular tachycardia; cardiac markers - NSTEMI patients with elevated cardiac TnT, Tnl, or CK-MB.	Percutaneous Coronary Intervention for High Risk Non-ST Elevation Myocardial Infarction or Unstable Angina
C100001	C101859		Cardiac Procedure Indication	PERCUTANEOUS CORONARY INTERVENTION (PCI) FOR ST ELEVATION MYOCARDIAL INFARCTION (STEMI) (STABLE AFTER SUCCESSFUL FULL-DOSE THROMBOLYTICS)		A percutaneous coronary intervention is necessary for a myocardial infarction that presents with ST segment elevation and the subject does not have recurrent or persistent symptoms, symptoms of heart failure or ventricular arrhythmia after a successful dose of thrombolytic therapy.	Percutaneous Coronary Intervention for ST Elevation Myocardial Infarction-Stable After Successful Full-Dose Thrombolytic Therapy
C100000	C101859		Cardiac Procedure Indication	PERCUTANEOUS CORONARY INTERVENTION (PCI) FOR ST ELEVATION MYOCARDIAL INFARCTION (STEMI) (STABLE, >12 HRS FROM SYMPTOM ONSET)		A percutaneous coronary intervention is necessary for a myocardial infarction that presents with ST segment elevation and the subject does not have recurrent or persistent symptoms, symptoms of heart failure or ventricular arrhythmia. The presentation is past twelve hours since onset of symptoms.	Percutaneous Coronary Intervention for ST Elevation Myocardial Infarction-Stable-Over 12 Hours From Symptom Onset
C100002	C101859		Cardiac Procedure Indication	PERCUTANEOUS CORONARY INTERVENTION (PCI) FOR ST ELEVATION MYOCARDIAL INFARCTION (STEMI) (UNSTABLE, >12 HRS FROM SYMPTOM ONSET)		A percutaneous coronary intervention is necessary for a myocardial infarction that presents with ST segment elevation and the subject has recurrent or persistent symptoms, symptoms of heart failure or ventricular arrhythmia. The presentation is past twelve hours since onset of symptoms.	Percutaneous Coronary Intervention for ST Elevation Myocardial Infarction-Unstable-Over 12 Hours From Symptom Onset
C100005	C101859		Cardiac Procedure Indication	POST-CARDIAC TRANSPLANT		A procedure to evaluate the health of the an individual after receiving a heart transplant.	Post-Cardiac Transplant Evaluation
C100006	C101859		Cardiac Procedure Indication	PRE-OPERATIVE EVALUATION FOR NON-CARDIOVASCULAR SURGERY		A procedure to evaluate the health of the cardiac system to determine feasibility of a non-cardiac related surgical procedure.	Pre-Operative Evaluation for Non-Cardiovascular Surgery
C15306	C101859		Cardiac Procedure Indication	PRIMARY PREVENTION		A procedure performed to avoid the first occurrence of a disease condition.	Primary Prevention
C100008	C101859		Cardiac Procedure Indication	RESCUE PERCUTANEOUS CORONARY INTERVENTION (PCI) FOR ST ELEVATION MYOCARDIAL INFARCTION (STEMI) (AFTER FAILED FULL-DOSE THROMBOLYTICS)		A percutaneous coronary intervention is imperative for a myocardial infarction that presents with ST segment elevation after an unsatisfactory response to a full dose of thrombolytic therapy.	Rescue Percutaneous Coronary Intervention for ST Elevation Myocardial Infarction After Failed Full-Dose Thrombolytic Therapy
C15712	C101859		Cardiac Procedure Indication	SECONDARY PREVENTION		A procedure performed to avoid a subsequent occurrence of a disease condition.	Secondary Prevention
C100014	C101859		Cardiac Procedure Indication	SPONTANEOUS SUSTAINED VENTRICULAR TACHYCARDIA		Ventricular tachycardia that occurs without provocation and does not resolve spontaneously.	Spontaneous Sustained Ventricular Tachycardia by ECG Finding
C100015	C101859		Cardiac Procedure Indication	STAGED PERCUTANEOUS CORONARY INTERVENTION (PCI)		A subsequent Percutaneous Coronary Intervention in a planned series of procedures, where the first PCI could have been during a prior admission, or during this admission.	Staged Percutaneous Coronary Intervention
C100018	C101859		Cardiac Procedure Indication	SYNCOPE WITH HIGH RISK CHARACTERISTICS		A sudden loss of consciousness with loss of postural tone not related to anesthesia with high risk characteristics. High risk characteristics include non-ischemic dilated cardiomyopathy, or ischemic heart disease with significant ventricular dysfunction, hypertrophic cardiomyopathy, Brugada Syndrome, or Long QT Syndrome.	Syncope with High Risk Cardiac Characteristics
C100019	C101859		Cardiac Procedure Indication	SYNCOPE WITH INDUCIBLE VENTRICULAR TACHYCARDIA		Sudden loss of consciousness with loss of postural tone not related to anesthesia with ventricular tachycardia (VT) that can be induced during an electrophysiological study.	Syncope with Inducible Ventricular Tachycardia by ECG Finding
C17998	C101859		Cardiac Procedure Indication	UNKNOWN	U; Unknown	Not known, not observed, not recorded, or refused. (NCI)	Unknown
C100030	C101859		Cardiac Procedure Indication	UPGRADE TO A DEVICE WITH ADDITIONAL PACING CAPABILITIES		A device with additional pacing capabilities is replacing the current device.	Upgrade to Cardiac Device with Additional Pacing Capabilities
C50799	C101859		Cardiac Procedure Indication	VENTRICULAR FIBRILLATION		Ventricular Fibrillation is characterized by rapid, usually more than 300 bpm (cycle length: 180 ms or less), grossly irregular ventricular rhythm with marked variability in QRS cycle length, morphology, and amplitude.	Ventricular Fibrillation
C101866		Yes	Cardiac Rhythm Device Failure Manifestation	CRYDFMAN	Cardiac Rhythm Device Failure Manifestation	The effect that a cardiac rhythm device malfunction had on the ability to stimulate the heart.	CDISC SDTM Cardiac Rhythm Device Failure Manifestation Terminology
C99921	C101866		Cardiac Rhythm Device Failure Manifestation	ATRIAL PACING MALFUNCTION		The cardiac rhythm device malfunction affected atrial pacing.	Cardiac Atrial Pacing Malfunction
C99923	C101866		Cardiac Rhythm Device Failure Manifestation	DEFIBRILLATION MALFUNCTION		The cardiac rhythm device malfunction affected the defibrillator.	Cardiac Defibrillator Malfunction
C99973	C101866		Cardiac Rhythm Device Failure Manifestation	LEFT VENTRICULAR PACING MALFUNCTION		The cardiac rhythm device malfunction affected the left ventricular (LV) pacing.	Left Cardiac Ventricular Pacing Malfunction
C100011	C101866		Cardiac Rhythm Device Failure Manifestation	RIGHT VENTRICULAR PACING MALFUNCTION		The cardiac rhythm device malfunction affected the right ventricular (RV) pacing.	Right Cardiac Ventricle Pacing Malfunction
C101853		No	Cardiac Valvular Regurgitation Severity	CVLVRSEV	Cardiac Valvular Regurgitation Severity	A terminology codelist to describe the severity of cardiac valvular regurgitation.	CDISC SDTM Cardiac Valvular Regurgitation Severity Terminology
C99985	C101853		Cardiac Valvular Regurgitation Severity	MILD CARDIAC VALVE REGURGITATION		Evidence of mild retrograde blood flow through the valve(s) of the heart.	Mild Cardiac Valve Regurgitation
C99989	C101853		Cardiac Valvular Regurgitation Severity	MODERATE CARDIAC VALVE REGURGITATION		Evidence of moderate retrograde blood flow through the valve(s) of the heart.	Moderate Cardiac Valve Regurgitation
C99991	C101853		Cardiac Valvular Regurgitation Severity	NO CARDIAC VALVE REGURGITATION		No evidence of any retrograde blood flow through the valve(s) in the heart.	No Cardiac Valve Regurgitation
C100012	C101853		Cardiac Valvular Regurgitation Severity	SEVERE CARDIAC VALVE REGURGITATION		Evidence of severe retrograde blood flow through the valve(s) of the heart.	Severe Cardiac Valve Regurgitation
C101854		No	Cardiac Valvular Stenosis Severity	CVLSTSEV	Cardiac Valvular Stenosis Severity	A terminology codelist to describe the severity of cardiac valvular stenosis.	CDISC SDTM Cardiac Valvular Stenosis Severity Terminology
C99986	C101854		Cardiac Valvular Stenosis Severity	MILD CARDIAC VALVE STENOSIS		The cardiac valve orifice is abnormally narrow, to a mild degree.	Mild Cardiac Valve Stenosis
C99990	C101854		Cardiac Valvular Stenosis Severity	MODERATE CARDIAC VALVE STENOSIS		The cardiac valve orifice is abnormally narrow, to a moderate degree.	Moderate Cardiac Valve Stenosis
C99992	C101854		Cardiac Valvular Stenosis Severity	NO CARDIAC VALVE STENOSIS		The cardiac valve orifice is not abnormally narrow.	No Cardiac Valve Stenosis
C100013	C101854		Cardiac Valvular Stenosis Severity	SEVERE CARDIAC VALVE STENOSIS		The cardiac valve orifice is abnormally narrow, to a severe degree.	Severe Cardiac Valve Stenosis
C119016		No	Cardiovascular Findings About Results	CVFARS	Cardiovascular Findings About Results	Terminology responses used for the cardiovascular findings about test codes and names codelist within CDISC.	CDISC SDTM Cardiovascular Findings About Results Terminology
C20080	C119016		Cardiovascular Findings About Results	ANGIOGRAPHY		A method used to create an image of blood vessels.	Angiography
C119199	C119016		Cardiovascular Findings About Results	AUGMENTATION OF ORAL DIURETIC THERAPY		Initiation or intensification of orally administered medication(s) that promote diuresis to treat heart failure.	Oral Diuretic Therapy Augmentation for Heart Failure
C25153	C119016		Cardiovascular Findings About Results	AUTOPSY		A postmortem examination of the body.	Autopsy
C119200	C119016		Cardiovascular Findings About Results	CLINICALLY SIGNIFICANT OR RAPID WEIGHT GAIN		Weight gain thought to be related to fluid retention.	Weight Gain Due to Fluid Retention
C119201	C119016		Cardiovascular Findings About Results	CORONARY LESION ON ANGIOGRAPHY		Angiographic evidence of new or worse greater than or equal to 70 percent lesion and/or thrombus in an epicardial coronary artery believed to be responsible for the myocardial ischemic symptoms/signs. (Hicks KA, Tcheng JE, Bozkurt B, Chaitman BR, Cutlip DE, Farb A, Fonarow GC, Jacobs JP, Jaff MR, Lichtman JH, Limacher MC, Mahaffey KW, Mehran, R, Nissen SE, Smith EE, Targum SL. 2014 ACC/AHA Key Data Elements and Definitions For Cardiovascular Endpoint Events In Clinical Trials: a report of the American College of Cardiology/American Heart Association Task Force on Clinical Data Standards (Writing Committee to Develop Cardiovascular End Points Data Standards) J Am Coll Cardiol 2014; In Press)	Coronary Lesion by Angiographic Finding
C119202	C119016		Cardiovascular Findings About Results	CORONARY REVASCULARIZATION		Need for coronary revascularization procedure (PCI or CABG) for the presumed culprit lesion(s). This criterion would be fulfilled if revascularization was undertaken during the unscheduled hospitalization, or subsequent to transfer to another institution without interceding home discharge. (Hicks KA, Tcheng JE, Bozkurt B, Chaitman BR, Cutlip DE, Farb A, Fonarow GC, Jacobs JP, Jaff MR, Lichtman JH, Limacher MC, Mahaffey KW, Mehran, R, Nissen SE, Smith EE, Targum SL. 2014 ACC/AHA Key Data Elements and Definitions For Cardiovascular Endpoint Events In Clinical Trials: a report of the American College of Cardiology/American Heart Association Task Force on Clinical Data Standards (Writing Committee to Develop Cardiovascular End Points Data Standards) J Am Coll Cardiol 2014; In Press)	Coronary Revascularization Procedure
C119203	C119016		Cardiovascular Findings About Results	DECREASED EXERCISE TOLERANCE		Reduced ability to withstand or participate in activities that induce physical or mental exertion.	Decreased Exercise Tolerance
C2998	C119016		Cardiovascular Findings About Results	DYSPNEA		Includes dyspnea on exertion, dyspnea at rest, orthopnea, and paroxysmal nocturnal dyspnea.	Dyspnea
C3036	C119016		Cardiovascular Findings About Results	FATIGUE		Unusual tiredness and inability to perform usual activities.	Fatigue
C119204	C119016		Cardiovascular Findings About Results	HEART FAILURE HOSPITALIZATION		An event where the patient is admitted to the hospital with a primary diagnosis of heart failure (HF), where the length of stay is at least 24 hours (or extends over a calendar date), where the patient exhibits new or worsening symptoms of HF on presentation, has objective evidence of new or worsening HF, and receives initiation or intensification of treatment specifically for HF. (Hicks KA, Tcheng JE, Bozkurt B, Chaitman BR, Cutlip DE, Farb A, Fonarow GC, Jacobs JP, Jaff MR, Lichtman JH, Limacher MC, Mahaffey KW, Mehran, R, Nissen SE, Smith EE, Targum SL. 2014 ACC/AHA Key Data Elements and Definitions For Cardiovascular Endpoint Events In Clinical Trials: a report of the American College of Cardiology/American Heart Association Task Force on Clinical Data Standards (Writing Committee to Develop Cardiovascular End Points Data Standards) J Am Coll Cardiol 2014; In Press)	Hospitalization Due to Heart Failure
C95803	C119016		Cardiovascular Findings About Results	HEMORRHAGIC STROKE		An acute episode of focal or global cerebral or spinal dysfunction caused by intraparenchymal, intraventricular, or subarachnoid hemorrhage.	Hemorrhagic Cerebrovascular Accident
C119205	C119016		Cardiovascular Findings About Results	INCREASE IN HEART FAILURE BIOMARKER		Biomarker increase (B-type natriuretic peptide (BNP)/ N-terminal pro-BNP (NT-proBNP)) consistent with decompensation of heart failure (such as BNP greater than 500 pg/mL or NT-proBNP greater than 2,000 pg/mL). In patients with chronically elevated natriuretic peptides, a significant increase above baseline is required. (Hicks KA, Tcheng JE, Bozkurt B, Chaitman BR, Cutlip DE, Farb A, Fonarow GC, Jacobs JP, Jaff MR, Lichtman JH, Limacher MC, Mahaffey KW, Mehran, R, Nissen SE, Smith EE, Targum SL. 2014 ACC/AHA Key Data Elements and Definitions For Cardiovascular Endpoint Events In Clinical Trials: a report of the American College of Cardiology/American Heart Association Task Force on Clinical Data Standards (Writing Committee to Develop Cardiovascular End Points Data Standards) J Am Coll Cardiol 2014; In Press)	Increase in B-type Natriuretic Peptide or N-terminal pro-B-type Natriuretic Peptide
C119206	C119016		Cardiovascular Findings About Results	INCREASED JUGULAR VENOUS PRESSURE OR HEPATOJUGULAR REFLUX		Increase in the estimated height of the mean jugular venous waveform above the right atrium in cm.	Increase in Jugular Venous Pressure
C2885	C119016		Cardiovascular Findings About Results	INCREASING ABDOMINAL DISTENTION OR ASCITES		Intra-abdominal fluid accumulation as determined by physical examination (in the absence of primary hepatic disease).	Ascites
C119207	C119016		Cardiovascular Findings About Results	INDUCIBLE MYOCARDIAL ISCHEMIA		Definite evidence of inducible myocardial ischemia believed to be responsible for the myocardial ischemic symptoms/signs, demonstrated by any of the following: a) an early positive exercise stress test, defined as ST elevation of greater than or equal to 2 mm ST depression prior to 5 mets, b) stress echocardiography (reversible wall motion abnormality), c) myocardial scintigraphy (reversible perfusion defect), d) MRI (myocardial perfusion deficit under pharmacologic stress). (Hicks KA, Tcheng JE, Bozkurt B, Chaitman BR, Cutlip DE, Farb A, Fonarow GC, Jacobs JP, Jaff MR, Lichtman JH, Limacher MC, Mahaffey KW, Mehran, R, Nissen SE, Smith EE, Targum SL. 2014 ACC/AHA Key Data Elements and Definitions For Cardiovascular Endpoint Events In Clinical Trials: a report of the American College of Cardiology/American Heart Association Task Force on Clinical Data Standards (Writing Committee to Develop Cardiovascular End Points Data Standards) J Am Coll Cardiol 2014; In Press)	Inducible Myocardial Ischemia
C119208	C119016		Cardiovascular Findings About Results	INTRAVENOUS DIURETIC, INOTROPE, OR VASODILATOR THERAPY		Initiation or intensification of medication(s) administered by vein to treat heart failure, to increase the production of urine, increase cardiac performance, and/or reduce cardiac preload or afterload.	Intravenous Diuretic, Inotropic or Vasodilator Augmentation for Heart Failure
C119209	C119016		Cardiovascular Findings About Results	INVASIVE DIAGNOSTIC EVIDENCE OF HEART FAILURE		Invasive diagnostic evidence with right heart catheterization showing a pulmonary capillary wedge pressure (pulmonary artery occlusion pressure) greater than or equal to 18 mmHg, central venous pressure greater than or equal to 12 mmHg, or a cardiac index less than 2.2 L/min/m2. (Hicks KA, Tcheng JE, Bozkurt B, Chaitman BR, Cutlip DE, Farb A, Fonarow GC, Jacobs JP, Jaff MR, Lichtman JH, Limacher MC, Mahaffey KW, Mehran, R, Nissen SE, Smith EE, Targum SL. 2014 ACC/AHA Key Data Elements and Definitions For Cardiovascular Endpoint Events In Clinical Trials: a report of the American College of Cardiology/American Heart Association Task Force on Clinical Data Standards (Writing Committee to Develop Cardiovascular End Points Data Standards) J Am Coll Cardiol 2014; In Press)	Heart Failure by Invasive Diagnostic Technique
C95802	C119016		Cardiovascular Findings About Results	ISCHEMIC STROKE		Ischemic stroke is defined as an acute episode of focal cerebral, spinal, or retinal dysfunction caused by infarction of central nervous system tissue.	Ischemic Cerebrovascular Accident
C119210	C119016		Cardiovascular Findings About Results	LOSS OF A SIDE BRANCH		Angiographic loss of patency of a side branch.	Loss of Patency of Side Branch
C119211	C119016		Cardiovascular Findings About Results	LOSS OF MAJOR CORONARY		Angiographic loss of patency of a major epicardial vessel.	Loss of Patency of Major Vessel
C119212	C119016		Cardiovascular Findings About Results	MECHANICAL OR SURGICAL INTERVENTION		Mechanical circulatory support (e.g., intra-aortic balloon pump, ventricular assist device, extracorporeal membrane oxygenation, total artificial heart) or mechanical fluid removal (e.g., ultrafiltration, hemofiltration, dialysis). (Hicks KA, Tcheng JE, Bozkurt B, Chaitman BR, Cutlip DE, Farb A, Fonarow GC, Jacobs JP, Jaff MR, Lichtman JH, Limacher MC, Mahaffey KW, Mehran, R, Nissen SE, Smith EE, Targum SL. 2014 ACC/AHA Key Data Elements and Definitions For Cardiovascular Endpoint Events In Clinical Trials: a report of the American College of Cardiology/American Heart Association Task Force on Clinical Data Standards (Writing Committee to Develop Cardiovascular End Points Data Standards) J Am Coll Cardiol 2014; In Press)	Vasculature Mechanical or Surgical Intervention
C119213	C119016		Cardiovascular Findings About Results	NEW LOSS OF VIABLE MYOCARDIUM		Non-invasive imaging evidence of a loss of viable myocardium when compared with the most recent previous non-invasive imaging study.	New Loss of Viable Myocardium by Non-invasive Imaging Technique
C119214	C119016		Cardiovascular Findings About Results	NEW REGIONAL WALL MOTION ABNORMALITY		Non-invasive imaging evidence of a decrease in regional wall motion contractility compared with the most recent previous non-invasive imaging study.	New Regional Wall Motion Abnormality by Non-invasive Imaging Technique
C119215	C119016		Cardiovascular Findings About Results	NON-INVASIVE DIAGNOSTIC EVIDENCE OF HEART FAILURE		Non-invasive diagnostic evidence of clinically significant elevated left- or right-sided ventricular filling pressure or low cardiac output. For example, echocardiographic criteria could include: E/e' greater than 15 or D-dominant pulmonary venous inflow pattern, plethoric inferior vena cava with minimal collapse on inspiration, or decreased left ventricular outflow tract (LVOT) minute stroke distance (time velocity integral (TVI)). (Hicks KA, Tcheng JE, Bozkurt B, Chaitman BR, Cutlip DE, Farb A, Fonarow GC, Jacobs JP, Jaff MR, Lichtman JH, Limacher MC, Mahaffey KW, Mehran, R, Nissen SE, Smith EE, Targum SL. 2014 ACC/AHA Key Data Elements and Definitions For Cardiovascular Endpoint Events In Clinical Trials: a report of the American College of Cardiology/American Heart Association Task Force on Clinical Data Standards (Writing Committee to Develop Cardiovascular End Points Data Standards) J Am Coll Cardiol 2014; In Press)	Heart Failure by Non-invasive Diagnostic Technique
C78262	C119016		Cardiovascular Findings About Results	PERIPHERAL EDEMA		Increased tissue fluid indicated by perceptible pitting indentation on lower leg, foot or sacrum after palpation.	Edema Limbs
C119216	C119016		Cardiovascular Findings About Results	PULMONARY RALES/CRACKLES/CREPITATIONS		Abnormal breath sounds caused by the accumulation of fluid in the lungs.	Rales
C119217	C119016		Cardiovascular Findings About Results	RADIOLOGICAL EVIDENCE OF PULMONARY CONGESTION		Imaging findings consistent with increased intravascular blood volume in the lungs.	Pulmonary Congestion by Radiological Technique
C119218	C119016		Cardiovascular Findings About Results	RESTING ECG CHANGES		New or worsening ST or T wave changes on resting ECG (in the absence of confounders, such as LBBB or LVH), defined as either: a) Transient ST elevation (duration less than 20 minutes): new ST elevation at the J point in any two contiguous leads (other than leads V2-V3) of greater than or equal to 0.1 mV. In leads V2-V3, the following cut-points apply: greater than or equal to 0.2 mV in men greater than or equal to 40 years, greater than or equal to 0.25 mV in men less than 40 years, and greater than or equal to 0.15 mV in women, or b) ST depression and T-wave changes: new horizontal or down-sloping ST depression greater than or equal to 0.05 mV in two contiguous leads and/or new T inversion greater than or equal to 0.3 mV in two contiguous leads with prominent R wave or R/S ratio greater than 1.	Resting ECG Changes
C61455	C119016		Cardiovascular Findings About Results	S3 GALLOP		Presence of mid-diastolic heart sound.	S3 Gallop
C119219	C119016		Cardiovascular Findings About Results	SLOW-FLOW/NO-FLOW/EMBOLIZATION		Angiographic reduction of flow into the coronary microcirculation.	Flow Reduced in Coronary Microcirculation
C119220	C119016		Cardiovascular Findings About Results	TYPE 1 MYOCARDIAL INFARCTION		Spontaneous clinical syndrome related to atherosclerotic plaque rupture, ulceration, fissuring, erosion, or dissection, with resulting intraluminal thrombus, and leading to decreased myocardial blood flow or distal platelet emboli with ensuing myocyte necrosis. This classification requires a) detection of a rise and/or fall of cardiac biomarker values [preferably cardiac troponin (cTn)] with at least one value greater than 99th percentile of the upper reference limit (URL) and b) at least one of the following: symptoms of myocardial ischemia; new or presumed new significant ST-segment-T wave (ST-T) changes or new left bundle branch block (LBBB) on the ECG; development of pathological Q waves on the ECG; imaging evidence of new loss of viable myocardium or new regional wall motion abnormality; identification of an intracoronary thrombus by angiography or autopsy. (Universal definition of myocardial infarction, Kristian Thygesen, Joseph S. Alpert and Harvey D. White on behalf of the Joint ESC/ACCF/AHA/WHF Task Force for the Redefinition of Myocardial Infarction, Eur Heart J (2007) 28 (20): 2525-2538.)	Joint Task Force Type 1 Myocardial Infarction
C119221	C119016		Cardiovascular Findings About Results	TYPE 2 MYOCARDIAL INFARCTION		Ischemic imbalance: Spontaneous clinical syndrome where a condition other than coronary artery disease contributes to an imbalance between myocardial oxygen supply and/or demand, e.g. coronary endothelial dysfunction, coronary artery spasm, coronary embolism, tachy-/brady-arrhythmias, anemia, respiratory failure, hypotension, and hypertension with or without left ventricular hypertrophy. This classification requires detection of a rise and/or fall of cardiac biomarker values [preferably cardiac troponin (cTn)] with at least one value greater than 99th percentile of the upper reference limit (URL) and b) at least one of the following: symptoms of myocardial ischemia; new or presumed new significant ST-segment-T wave (ST-T) changes or new left bundle branch block (LBBB) on the ECG; development of pathological Q waves on the ECG; imaging evidence of new loss of viable myocardium or new regional wall motion abnormality. (Universal definition of myocardial infarction, Kristian Thygesen, Joseph S. Alpert and Harvey D. White on behalf of the Joint ESC/ACCF/AHA/WHF Task Force for the Redefinition of Myocardial Infarction, Eur Heart J (2007) 28 (20): 2525-2538.)	Joint Task Force Type 2 Myocardial Infarction
C119222	C119016		Cardiovascular Findings About Results	TYPE 3 MYOCARDIAL INFARCTION		Death, No Biomarkers: Death where symptoms suggestive of myocardial ischemia are present, and with (presumed) new ischemic changes or new LBBB on ECG, but where death occurs before cardiac biomarkers can be obtained, or before cardiac biomarker values could rise. (Universal definition of myocardial infarction, Kristian Thygesen, Joseph S. Alpert and Harvey D. White on behalf of the Joint ESC/ACCF/AHA/WHF Task Force for the Redefinition of Myocardial Infarction, Eur Heart J (2007) 28 (20): 2525-2538.)	Joint Task Force Type 3 Myocardial Infarction
C119223	C119016		Cardiovascular Findings About Results	TYPE 4A MYOCARDIAL INFARCTION		PCI Related: PCI Related Myocardial infarction associated with and occurring within 48h of percutaneous coronary intervention, with elevation of cardiac biomarker values to greater than 5x 99th percentile of the upper reference limit (URL) in patients with normal baseline values (less than or equal to 99th percentile URL), or a rise of cardiac biomarker values greater than or equal to 20% if the baseline values are elevated and are stable or falling. This classification also requires at least one of the following: symptoms of myocardial ischemia; new ischemic ECG changes or new LBBB; angiographic loss of patency of a major coronary artery or a side branch or persistent slow- or no-flow or embolization; imaging evidence of new loss of viable myocardium or new regional wall motion abnormality. (Universal definition of myocardial infarction, Kristian Thygesen, Joseph S. Alpert and Harvey D. White on behalf of the Joint ESC/ACCF/AHA/WHF Task Force for the Redefinition of Myocardial Infarction, Eur Heart J (2007) 28 (20): 2525-2538.)	Joint Task Force Type 4A Myocardial Infarction
C119224	C119016		Cardiovascular Findings About Results	TYPE 4B MYOCARDIAL INFARCTION		Stent Thrombosis: Myocardial infarction associated with stent thrombosis as detected by coronary angiography or at autopsy, where symptoms suggestive of myocardial ischemia are present, and with a rise and/or fall of cardiac biomarkers values, with at least one value greater than 99th percentile of the upper reference limit. (Universal definition of myocardial infarction, Kristian Thygesen, Joseph S. Alpert and Harvey D. White on behalf of the Joint ESC/ACCF/AHA/WHF Task Force for the Redefinition of Myocardial Infarction, Eur Heart J (2007) 28 (20): 2525-2538.)	Joint Task Force Type 4B Myocardial Infarction
C119225	C119016		Cardiovascular Findings About Results	TYPE 4C MYOCARDIAL INFARCTION		Stent Restenosis: Myocardial infarction associated with stent restenosis as detected by coronary angiography or at autopsy, occurring more than 48h after percutaneous coronary intervention, without evidence of stent thrombosis but with symptoms suggestive of myocardial ischemia, and with elevation of cardiac biomarker values to greater than 99th percentile of the upper reference limit (URL). This classification also requires the following: does not meet criteria for any other classification of myocardial infarction; presence of a greater than or equal to 50 percent stenosis at the site of previous successful stent PCI. (Universal definition of myocardial infarction, Kristian Thygesen, Joseph S. Alpert and Harvey D. White on behalf of the Joint ESC/ACCF/AHA/WHF Task Force for the Redefinition of Myocardial Infarction, Eur Heart J (2007) 28 (20): 2525-2538.)	Joint Task Force Type 4C Myocardial Infarction
C119226	C119016		Cardiovascular Findings About Results	TYPE 5 MYOCARDIAL INFARCTION		CABG Related: Myocardial infarction associated with and occurring within 48h of coronary artery bypass graft surgery, with elevation of cardiac biomarker values to greater than 10x 99th percentile of the upper reference limit (URL) in patients with normal baseline cardiac biomarker values (less than or equal to 99th percentile URL). This classification also requires at least one of the following: new pathologic Q waves or new LBBB on ECG; angiographic new graft or new native coronary artery occlusion; imaging evidence of new loss of viable myocardium or new regional wall motion abnormality. (Universal definition of myocardial infarction, Kristian Thygesen, Joseph S. Alpert and Harvey D. White on behalf of the Joint ESC/ACCF/AHA/WHF Task Force for the Redefinition of Myocardial Infarction, Eur Heart J (2007) 28 (20): 2525-2538.)	Joint Task Force Type 5 Myocardial Infarction
C3390	C119016		Cardiovascular Findings About Results	UNDETERMINED STROKE		An acute episode of focal or global neurological dysfunction caused by presumed brain, spinal cord, or retinal vascular injury as a result of hemorrhage or infarction but with insufficient information to allow categorization as ischemic or hemorrhagic.	Cerebrovascular Accident
C119227	C119016		Cardiovascular Findings About Results	URGENT HEART FAILURE VISIT		An event where the patient has an urgent, unscheduled office/practice or emergency department visit for a primary diagnosis of heart failure (HF) but is not admitted to the hospital, where the patient exhibits new or worsening symptoms of HF on presentation, has objective evidence of new or worsening HF, and receives initiation or intensification of treatment specifically for HF, with the exception that changes to oral diuretic therapy do no qualify as initiation or intensification of treatment. (Hicks KA, Tcheng JE, Bozkurt B, Chaitman BR, Cutlip DE, Farb A, Fonarow GC, Jacobs JP, Jaff MR, Lichtman JH, Limacher MC, Mahaffey KW, Mehran, R, Nissen SE, Smith EE, Targum SL. 2014 ACC/AHA Key Data Elements and Definitions For Cardiovascular Endpoint Events In Clinical Trials: a report of the American College of Cardiology/American Heart Association Task Force on Clinical Data Standards (Writing Committee to Develop Cardiovascular End Points Data Standards) J Am Coll Cardiol 2014; In Press)	ER or Office Visit Due to Heart Failure
C50591	C119016		Cardiovascular Findings About Results	VOLUME OVERLOAD		Excessive accumulation of intravascular fluid resulting from compromised regulatory mechanisms.	Hypervolemia
C119228	C119016		Cardiovascular Findings About Results	WORSENED END-ORGAN PERFUSION		Decreased blood supply to the vital organs (kidney, liver, lungs, heart, brain).	Worsened End-Organ Perfusion
C119015		No	Cardiovascular Findings About Test Code	CVFATSCD	Cardiovascular Findings About Test Code	Terminology relevant to the test codes that describe findings about a cardiovascular event or intervention.	CDISC SDTM Cardiovascular Findings About Test Code Terminology
C118936	C119015		Cardiovascular Findings About Test Code	ACMITYPE	Acute Myocardial Infarction Type	Categorization of the type of acute myocardial infarction.	Acute Myocardial Infarction Type
C119229	C119015		Cardiovascular Findings About Test Code	CATMTHID	Coronary Artery Thrombosis Method Ident	The method by which the coronary artery thrombosis event is determined or diagnosed.	Coronary Artery Thrombosis Method of Identification
C119230	C119015		Cardiovascular Findings About Test Code	ENDPTIND	Endpoint Event Indicator	An indication as to whether the event meets the criteria for being a clinical endpoint.	Endpoint Event Indicator
C119231	C119015		Cardiovascular Findings About Test Code	HETYPE	Healthcare Encounter Type	Categorization of the type of healthcare encounter.	Healthcare Encounter Type
C119232	C119015		Cardiovascular Findings About Test Code	HFLBFNW	Heart Failure New/Worsening Lab Findings	Categorization of the type(s) of new and/or worsening laboratory findings of heart failure present at the time of patient presentation.	Lab Findings of New or Worsening Heart Failure
C119233	C119015		Cardiovascular Findings About Test Code	HFPEFNW	Heart Failure New/Worsening PE Findings	Categorization of the type(s) of new and/or worsening physical exam findings of heart failure present at the time of patient presentation.	Physical Examination Findings of New or Worsening Heart Failure
C119234	C119015		Cardiovascular Findings About Test Code	HFTHERIN	Heart Failure Therapy, Intensification	Categorization of the type(s) of new and/or intensified treatment administered for heart failure management.	Heart Failure Therapy Intensification Type
C119235	C119015		Cardiovascular Findings About Test Code	ISCDIND	Ischemic Discomfort Indicator	An indicator as to whether the subject has symptoms of ischemic discomfort.	Ischemic Discomfort Indicator
C119236	C119015		Cardiovascular Findings About Test Code	ISCETYP	Ischemic Evidence Type	Categorization of the type of objective evidence of new or worsening ischemia.	Ischemic Evidence Type
C119237	C119015		Cardiovascular Findings About Test Code	MI12EXC	Exclusion of Type 1 and Type 2 MI	An indication of whether a Type 1 and Type 2 myocardial infarction is excluded as a diagnosis.	Exclusion of Type 1 and Type 2 Myocardial Infarction Diagnosis Indicator
C119238	C119015		Cardiovascular Findings About Test Code	NWSYMP	New or Worsening Symptoms	A description of the new or worsening symptoms related to a clinical event.	New or Worsening Symptom
C119239	C119015		Cardiovascular Findings About Test Code	PCIAAC	PCI Acute Angiographic Complication	Categorization of the type of acute PCI angiographic complication resulting in acute myocardial ischemia.	Acute Myocardial Infarction From PCI Complication Type
C119240	C119015		Cardiovascular Findings About Test Code	PRSUCIND	Procedure Success Indicator	An indication as to whether the procedure is considered successful.	Procedure Success Indicator
C101230	C119015		Cardiovascular Findings About Test Code	PRUSTAT	Procedure Urgency Status Type	The degree of urgency in which a medical procedure must be performed.	Triage Status
C119579	C119015		Cardiovascular Findings About Test Code	STROKTYP	Stroke Type	Categorization of the type of stroke.	Stroke Type
C119241	C119015		Cardiovascular Findings About Test Code	SYMPINDC	Symptom Indicator	An indication as to whether the subject had symptoms related to the clinical event.	Symptom Indicator
C119242	C119015		Cardiovascular Findings About Test Code	SYMSTDTC	Symptom Onset Date	The date time of the onset of symptoms of the clinical event.	Symptom Onset Date
C119243	C119015		Cardiovascular Findings About Test Code	VOC48IND	Vessel Occlusion After CABG 48 Ind	An indication as to whether vessel occlusion, in the native or bypass graft, occurred within 48 hours after the coronary artery bypass graft procedure.	Vessel Occlusion 48 Hours after CABG Indicator
C119014		No	Cardiovascular Findings About Test Name	CVFATS	Cardiovascular Findings About Test Name	Terminology relevant to the test names that describe findings about a cardiovascular event or intervention.	CDISC SDTM Cardiovascular Findings About Test Name Terminology
C118936	C119014		Cardiovascular Findings About Test Name	Acute Myocardial Infarction Type	Acute Myocardial Infarction Type	Categorization of the type of acute myocardial infarction.	Acute Myocardial Infarction Type
C119229	C119014		Cardiovascular Findings About Test Name	Coronary Artery Thrombosis Method Ident	Coronary Artery Thrombosis Method Ident	The method by which the coronary artery thrombosis event is determined or diagnosed.	Coronary Artery Thrombosis Method of Identification
C119230	C119014		Cardiovascular Findings About Test Name	Endpoint Event Indicator	Endpoint Event Indicator	An indication as to whether the event meets the criteria for being a clinical endpoint.	Endpoint Event Indicator
C119237	C119014		Cardiovascular Findings About Test Name	Exclusion of Type 1 and Type 2 MI	Exclusion of Type 1 and Type 2 MI	An indication of whether a Type 1 and Type 2 myocardial infarction is excluded as a diagnosis.	Exclusion of Type 1 and Type 2 Myocardial Infarction Diagnosis Indicator
C119231	C119014		Cardiovascular Findings About Test Name	Healthcare Encounter Type	Healthcare Encounter Type	Categorization of the type of healthcare encounter.	Healthcare Encounter Type
C119232	C119014		Cardiovascular Findings About Test Name	Heart Failure New/Worsening Lab Findings	Heart Failure New/Worsening Lab Findings	Categorization of the type(s) of new and/or worsening laboratory findings of heart failure present at the time of patient presentation.	Lab Findings of New or Worsening Heart Failure
